id,correctSide,trial,sub,condition,RT,correct,leftImage,rightImage,imagePair,imagePairCheck,category,categoryNum,sizeNum,
1_mayastroop,1,11,1,2,3228,1,11_fountain13,11_controller,11,11,Small-visBig,4,2,
1_mayastroop,1,12,1,1,1343,1,04_camera,04_tractor11,4,4,Big-visBig,1,1,
1_mayastroop,1,13,1,1,2783,1,12_pencil sharpener 5,12_bookcase,12,12,Big-visBig,1,1,
1_mayastroop,2,14,1,2,1325,1,04_camera,04_tractor11,4,4,Small-visBig,4,2,
1_mayastroop,2,15,1,1,3271,1,18_hotairballoon,18_ringbox03,18,18,Big-visBig,1,1,
1_mayastroop,1,16,1,2,3939,1,01_desk,01_apple,1,1,Small-visBig,4,2,
1_mayastroop,2,17,1,2,3097,1,19_garlic,19_refrigerator,19,19,Small-visBig,4,2,
1_mayastroop,1,18,1,2,3250,1,20_wheelchair,20_ornament,20,20,Small-visBig,4,2,
1_mayastroop,1,19,1,1,3679,1,10_bowtiepasta,10_bison,10,10,Big-visBig,1,1,
1_mayastroop,2,20,1,1,3997,1,19_refrigerator,19_garlic,19,19,Big-visBig,1,1,
1_mayastroop,1,21,1,1,2549,1,02_seashell,02_carousel,2,2,Big-visBig,1,1,
1_mayastroop,1,24,1,2,2965,1,12_bookcase,12_pencil sharpener 5,12,12,Small-visBig,4,2,
1_mayastroop,1,25,1,2,1816,1,13_piano,13_rubberduck,13,13,Small-visBig,4,2,
1_mayastroop,1,26,1,1,2359,1,01_apple,01_desk,1,1,Big-visBig,1,1,
1_mayastroop,2,27,1,2,1468,1,20_ornament,20_wheelchair,20,20,Small-visBig,4,2,
1_mayastroop,2,28,1,1,1415,1,12_bookcase,12_pencil sharpener 5,12,12,Big-visBig,1,1,
1_mayastroop,2,29,1,2,1050,1,11_controller,11_fountain13,11,11,Small-visBig,4,2,
1_mayastroop,2,30,1,1,1065,1,14_washingMachine,14_perfume,14,14,Big-visBig,1,1,
1_mayastroop,1,31,1,1,1938,1,05_button,05_wagon,5,5,Big-visBig,1,1,
1_mayastroop,1,32,1,2,2204,1,08_uprightpiano,08_changepurse,8,8,Small-visBig,4,2,
1_mayastroop,1,33,1,2,1920,1,19_refrigerator,19_garlic,19,19,Small-visBig,4,2,
1_mayastroop,2,34,1,1,1348,1,09_armchair,09_mushroom,9,9,Big-visBig,1,1,
1_mayastroop,1,35,1,1,2287,1,09_mushroom,09_armchair,9,9,Big-visBig,1,1,
1_mayastroop,2,36,1,2,3260,1,10_bowtiepasta,10_bison,10,10,Small-visBig,4,2,
1_mayastroop,2,37,1,1,1191,1,04_tractor11,04_camera,4,4,Big-visBig,1,1,
1_mayastroop,1,38,1,2,1754,1,16_garbagecan,16_clock,16,16,Small-visBig,4,2,
1_mayastroop,1,39,1,1,1214,1,11_controller,11_fountain13,11,11,Big-visBig,1,1,
1_mayastroop,2,40,1,2,1632,1,05_button,05_wagon,5,5,Small-visBig,4,2,
1_mayastroop,1,41,1,1,1603,1,18_ringbox03,18_hotairballoon,18,18,Big-visBig,1,1,
1_mayastroop,1,42,1,2,1466,1,14_washingMachine,14_perfume,14,14,Small-visBig,4,2,
1_mayastroop,2,43,1,1,1749,1,07_grill,07_dice,7,7,Big-visBig,1,1,
1_mayastroop,2,44,1,2,1697,1,13_rubberduck,13_piano,13,13,Small-visBig,4,2,
1_mayastroop,2,45,1,1,1383,1,15_couch2,15_scotchtape,15,15,Big-visBig,1,1,
1_mayastroop,2,46,1,2,1202,1,01_apple,01_desk,1,1,Small-visBig,4,2,
1_mayastroop,1,47,1,1,1249,1,20_ornament,20_wheelchair,20,20,Big-visBig,1,1,
1_mayastroop,1,48,1,2,2875,1,04_tractor11,04_camera,4,4,Small-visBig,4,2,
1_mayastroop,2,49,1,2,1343,1,14_perfume,14_washingMachine,14,14,Small-visBig,4,2,
1_mayastroop,1,50,1,1,1402,1,15_scotchtape,15_couch2,15,15,Big-visBig,1,1,
1_mayastroop,1,51,1,2,1594,1,10_bison,10_bowtiepasta,10,10,Small-visBig,4,2,
1_mayastroop,2,52,1,1,2011,1,16_garbagecan,16_clock,16,16,Big-visBig,1,1,
1_mayastroop,2,53,1,1,2408,1,08_uprightpiano,08_changepurse,8,8,Big-visBig,1,1,
1_mayastroop,1,54,1,2,1411,1,06_parthenon,06_cable,6,6,Small-visBig,4,2,
1_mayastroop,2,55,1,2,1403,1,17_pinecone,17_hotairballoon2,17,17,Small-visBig,4,2,
1_mayastroop,1,56,1,1,1230,1,08_changepurse,08_uprightpiano,8,8,Big-visBig,1,1,
1_mayastroop,2,57,1,2,2014,1,18_ringbox03,18_hotairballoon,18,18,Small-visBig,4,2,
2_Stella_48,2,11,2,2,1443,1,13_rubberduck,13_piano,13,13,Small-visBig,4,2,
2_Stella_48,1,12,2,1,1448,1,14_perfume,14_washingMachine,14,14,Big-visBig,1,1,
2_Stella_48,1,13,2,1,1500,1,12_pencil sharpener 5,12_bookcase,12,12,Big-visBig,1,1,
2_Stella_48,1,15,2,2,1778,1,13_piano,13_rubberduck,13,13,Small-visBig,4,2,
2_Stella_48,2,16,2,1,1035,1,15_couch2,15_scotchtape,15,15,Big-visBig,1,1,
2_Stella_48,2,17,2,1,1043,1,05_wagon,05_button,5,5,Big-visBig,1,1,
2_Stella_48,1,18,2,1,2448,1,20_ornament,20_wheelchair,20,20,Big-visBig,1,1,
2_Stella_48,1,19,2,2,2061,1,16_garbagecan,16_clock,16,16,Small-visBig,4,2,
2_Stella_48,2,20,2,2,1216,1,12_pencil sharpener 5,12_bookcase,12,12,Small-visBig,4,2,
2_Stella_48,2,21,2,1,835,1,17_hotairballoon2,17_pinecone,17,17,Big-visBig,1,1,
2_Stella_48,1,22,2,1,949,1,10_bowtiepasta,10_bison,10,10,Big-visBig,1,1,
2_Stella_48,2,23,2,2,1552,1,17_pinecone,17_hotairballoon2,17,17,Small-visBig,4,2,
2_Stella_48,1,24,2,2,1115,1,17_hotairballoon2,17_pinecone,17,17,Small-visBig,4,2,
2_Stella_48,2,25,2,1,1287,1,07_grill,07_dice,7,7,Big-visBig,1,1,
2_Stella_48,1,26,2,1,1475,1,04_camera,04_tractor11,4,4,Big-visBig,1,1,
2_Stella_48,1,27,2,2,2558,1,19_refrigerator,19_garlic,19,19,Small-visBig,4,2,
2_Stella_48,2,28,2,2,1129,1,09_mushroom,09_armchair,9,9,Small-visBig,4,2,
2_Stella_48,1,29,2,2,1654,1,06_parthenon,06_cable,6,6,Small-visBig,4,2,
2_Stella_48,1,30,2,1,1328,1,06_cable,06_parthenon,6,6,Big-visBig,1,1,
2_Stella_48,2,31,2,2,1779,1,10_bowtiepasta,10_bison,10,10,Small-visBig,4,2,
2_Stella_48,2,32,2,1,1452,1,14_washingMachine,14_perfume,14,14,Big-visBig,1,1,
2_Stella_48,2,33,2,1,1050,1,12_bookcase,12_pencil sharpener 5,12,12,Big-visBig,1,1,
2_Stella_48,2,34,2,2,1004,1,18_ringbox03,18_hotairballoon,18,18,Small-visBig,4,2,
2_Stella_48,1,35,2,1,2380,1,11_controller,11_fountain13,11,11,Big-visBig,1,1,
2_Stella_48,1,36,2,2,1446,1,14_washingMachine,14_perfume,14,14,Small-visBig,4,2,
2_Stella_48,1,37,2,2,1788,1,15_couch2,15_scotchtape,15,15,Small-visBig,4,2,
2_Stella_48,2,38,2,2,1920,1,01_apple,01_desk,1,1,Small-visBig,4,2,
2_Stella_48,2,39,2,1,1048,1,11_fountain13,11_controller,11,11,Big-visBig,1,1,
2_Stella_48,1,40,2,1,1433,1,13_rubberduck,13_piano,13,13,Big-visBig,1,1,
2_Stella_48,2,41,2,2,1034,1,16_clock,16_garbagecan,16,16,Small-visBig,4,2,
2_Stella_48,2,43,2,1,1275,1,16_garbagecan,16_clock,16,16,Big-visBig,1,1,
2_Stella_48,1,44,2,1,1403,1,17_pinecone,17_hotairballoon2,17,17,Big-visBig,1,1,
2_Stella_48,1,45,2,1,1120,1,18_ringbox03,18_hotairballoon,18,18,Big-visBig,1,1,
2_Stella_48,2,47,2,1,2402,1,06_parthenon,06_cable,6,6,Big-visBig,1,1,
2_Stella_48,1,48,2,2,1131,1,08_uprightpiano,08_changepurse,8,8,Small-visBig,4,2,
2_Stella_48,1,49,2,1,1013,1,16_clock,16_garbagecan,16,16,Big-visBig,1,1,
2_Stella_48,1,50,2,2,1236,1,01_desk,01_apple,1,1,Small-visBig,4,2,
2_Stella_48,2,51,2,2,1208,1,04_camera,04_tractor11,4,4,Small-visBig,4,2,
2_Stella_48,2,52,2,1,1107,1,04_tractor11,04_camera,4,4,Big-visBig,1,1,
2_Stella_48,2,53,2,1,1146,1,20_wheelchair,20_ornament,20,20,Big-visBig,1,1,
2_Stella_48,2,54,2,2,1196,1,08_changepurse,08_uprightpiano,8,8,Small-visBig,4,2,
2_Stella_48,1,55,2,2,1535,1,20_wheelchair,20_ornament,20,20,Small-visBig,4,2,
2_Stella_48,1,56,2,1,1435,1,15_scotchtape,15_couch2,15,15,Big-visBig,1,1,
2_Stella_48,2,57,2,2,1676,1,15_scotchtape,15_couch2,15,15,Small-visBig,4,2,
2_Stella_48,1,58,2,2,1598,1,02_carousel,02_seashell,2,2,Small-visBig,4,2,
2_Stella_48,1,59,2,1,2370,1,02_seashell,02_carousel,2,2,Big-visBig,1,1,
Charlie-48-ssreplicate,1,11,3,1,1191,1,07_dice,07_grill,7,7,Big-visBig,1,1,
Charlie-48-ssreplicate,2,12,3,2,1418,1,19_garlic,19_refrigerator,19,19,Small-visBig,4,2,
Charlie-48-ssreplicate,2,13,3,2,1030,1,08_changepurse,08_uprightpiano,8,8,Small-visBig,4,2,
Charlie-48-ssreplicate,2,14,3,1,1000,1,14_washingMachine,14_perfume,14,14,Big-visBig,1,1,
Charlie-48-ssreplicate,1,15,3,2,1125,1,13_piano,13_rubberduck,13,13,Small-visBig,4,2,
Charlie-48-ssreplicate,1,16,3,1,985,1,16_clock,16_garbagecan,16,16,Big-visBig,1,1,
Charlie-48-ssreplicate,2,17,3,2,1124,1,03_baseball 2,03_sofachair,3,3,Small-visBig,4,2,
Charlie-48-ssreplicate,1,18,3,1,1202,1,15_scotchtape,15_couch2,15,15,Big-visBig,1,1,
Charlie-48-ssreplicate,1,19,3,2,949,1,11_fountain13,11_controller,11,11,Small-visBig,4,2,
Charlie-48-ssreplicate,2,20,3,1,1080,1,19_refrigerator,19_garlic,19,19,Big-visBig,1,1,
Charlie-48-ssreplicate,1,21,3,2,817,1,14_washingMachine,14_perfume,14,14,Small-visBig,4,2,
Charlie-48-ssreplicate,2,22,3,1,1228,1,11_fountain13,11_controller,11,11,Big-visBig,1,1,
Charlie-48-ssreplicate,2,23,3,2,1117,1,17_pinecone,17_hotairballoon2,17,17,Small-visBig,4,2,
Charlie-48-ssreplicate,1,24,3,1,1067,1,14_perfume,14_washingMachine,14,14,Big-visBig,1,1,
Charlie-48-ssreplicate,1,25,3,2,1035,1,18_hotairballoon,18_ringbox03,18,18,Small-visBig,4,2,
Charlie-48-ssreplicate,2,26,3,1,1325,1,06_parthenon,06_cable,6,6,Big-visBig,1,1,
Charlie-48-ssreplicate,2,27,3,2,1243,1,13_rubberduck,13_piano,13,13,Small-visBig,4,2,
Charlie-48-ssreplicate,1,28,3,1,1219,1,17_pinecone,17_hotairballoon2,17,17,Big-visBig,1,1,
Charlie-48-ssreplicate,2,29,3,1,1043,1,05_wagon,05_button,5,5,Big-visBig,1,1,
Charlie-48-ssreplicate,2,30,3,2,1128,1,07_dice,07_grill,7,7,Small-visBig,4,2,
Charlie-48-ssreplicate,1,31,3,1,1061,1,06_cable,06_parthenon,6,6,Big-visBig,1,1,
Charlie-48-ssreplicate,1,32,3,2,1402,1,16_garbagecan,16_clock,16,16,Small-visBig,4,2,
Charlie-48-ssreplicate,2,33,3,1,949,1,15_couch2,15_scotchtape,15,15,Big-visBig,1,1,
Charlie-48-ssreplicate,1,34,3,1,1400,1,03_baseball 2,03_sofachair,3,3,Big-visBig,1,1,
Charlie-48-ssreplicate,1,35,3,2,1547,1,09_armchair,09_mushroom,9,9,Small-visBig,4,2,
Charlie-48-ssreplicate,2,36,3,2,1532,1,11_controller,11_fountain13,11,11,Small-visBig,4,2,
Charlie-48-ssreplicate,2,37,3,2,1326,1,05_button,05_wagon,5,5,Small-visBig,4,2,
Charlie-48-ssreplicate,1,38,3,1,948,1,08_changepurse,08_uprightpiano,8,8,Big-visBig,1,1,
Charlie-48-ssreplicate,1,39,3,2,1869,1,17_hotairballoon2,17_pinecone,17,17,Small-visBig,4,2,
Charlie-48-ssreplicate,2,40,3,1,1424,1,04_tractor11,04_camera,4,4,Big-visBig,1,1,
Charlie-48-ssreplicate,1,41,3,1,1148,1,10_bowtiepasta,10_bison,10,10,Big-visBig,1,1,
Charlie-48-ssreplicate,2,42,3,1,1348,1,16_garbagecan,16_clock,16,16,Big-visBig,1,1,
Charlie-48-ssreplicate,2,43,3,2,1080,1,09_mushroom,09_armchair,9,9,Small-visBig,4,2,
Charlie-48-ssreplicate,1,44,3,2,1251,1,12_bookcase,12_pencil sharpener 5,12,12,Small-visBig,4,2,
Charlie-48-ssreplicate,2,45,3,1,1077,1,07_grill,07_dice,7,7,Big-visBig,1,1,
Charlie-48-ssreplicate,1,46,3,1,1163,1,09_mushroom,09_armchair,9,9,Big-visBig,1,1,
Charlie-48-ssreplicate,2,47,3,2,1502,1,15_scotchtape,15_couch2,15,15,Small-visBig,4,2,
Charlie-48-ssreplicate,1,48,3,2,926,1,04_tractor11,04_camera,4,4,Small-visBig,4,2,
Charlie-48-ssreplicate,2,49,3,1,1605,1,02_carousel,02_seashell,2,2,Big-visBig,1,1,
Charlie-48-ssreplicate,2,50,3,2,1083,1,18_ringbox03,18_hotairballoon,18,18,Small-visBig,4,2,
Charlie-48-ssreplicate,1,51,3,1,2449,1,02_seashell,02_carousel,2,2,Big-visBig,1,1,
Charlie-48-ssreplicate,1,52,3,2,2438,1,15_couch2,15_scotchtape,15,15,Small-visBig,4,2,
Charlie-48-ssreplicate,2,53,3,1,1433,1,13_piano,13_rubberduck,13,13,Big-visBig,1,1,
Charlie-48-ssreplicate,2,54,3,2,1492,1,14_perfume,14_washingMachine,14,14,Small-visBig,4,2,
Charlie-48-ssreplicate,1,55,3,1,1003,1,20_ornament,20_wheelchair,20,20,Big-visBig,1,1,
Charlie-48-ssreplicate,1,56,3,2,1696,1,01_desk,01_apple,1,1,Small-visBig,4,2,
Charlie-48-ssreplicate,1,57,3,2,991,1,06_parthenon,06_cable,6,6,Small-visBig,4,2,
Cora-48-ssreplicate,1,11,4,1,1186,1,20_ornament,20_wheelchair,20,20,Big-visBig,1,1,
Cora-48-ssreplicate,2,12,4,2,1084,1,15_scotchtape,15_couch2,15,15,Small-visBig,4,2,
Cora-48-ssreplicate,2,13,4,1,1532,1,12_bookcase,12_pencil sharpener 5,12,12,Big-visBig,1,1,
Cora-48-ssreplicate,1,14,4,2,1112,1,09_armchair,09_mushroom,9,9,Small-visBig,4,2,
Cora-48-ssreplicate,2,15,4,2,1348,1,10_bowtiepasta,10_bison,10,10,Small-visBig,4,2,
Cora-48-ssreplicate,1,16,4,1,1602,1,18_ringbox03,18_hotairballoon,18,18,Big-visBig,1,1,
Cora-48-ssreplicate,2,17,4,2,1345,1,07_dice,07_grill,7,7,Small-visBig,4,2,
Cora-48-ssreplicate,1,18,4,2,1238,1,01_desk,01_apple,1,1,Small-visBig,4,2,
Cora-48-ssreplicate,1,19,4,1,1088,1,08_changepurse,08_uprightpiano,8,8,Big-visBig,1,1,
Cora-48-ssreplicate,2,20,4,1,1150,1,14_washingMachine,14_perfume,14,14,Big-visBig,1,1,
Cora-48-ssreplicate,2,21,4,1,1411,1,07_grill,07_dice,7,7,Big-visBig,1,1,
Cora-48-ssreplicate,1,22,4,2,1365,1,02_carousel,02_seashell,2,2,Small-visBig,4,2,
Cora-48-ssreplicate,2,23,4,2,981,1,11_controller,11_fountain13,11,11,Small-visBig,4,2,
Cora-48-ssreplicate,1,24,4,1,1947,1,04_camera,04_tractor11,4,4,Big-visBig,1,1,
Cora-48-ssreplicate,2,25,4,1,1355,1,03_sofachair,03_baseball 2,3,3,Big-visBig,1,1,
Cora-48-ssreplicate,2,26,4,2,1108,1,04_camera,04_tractor11,4,4,Small-visBig,4,2,
Cora-48-ssreplicate,1,27,4,2,1117,1,19_refrigerator,19_garlic,19,19,Small-visBig,4,2,
Cora-48-ssreplicate,1,28,4,1,1718,1,19_garlic,19_refrigerator,19,19,Big-visBig,1,1,
Cora-48-ssreplicate,2,29,4,1,1560,1,09_armchair,09_mushroom,9,9,Big-visBig,1,1,
Cora-48-ssreplicate,2,30,4,2,1109,1,05_button,05_wagon,5,5,Small-visBig,4,2,
Cora-48-ssreplicate,1,31,4,1,2148,1,03_baseball 2,03_sofachair,3,3,Big-visBig,1,1,
Cora-48-ssreplicate,1,32,4,2,1662,1,07_grill,07_dice,7,7,Small-visBig,4,2,
Cora-48-ssreplicate,2,33,4,2,1004,1,02_seashell,02_carousel,2,2,Small-visBig,4,2,
Cora-48-ssreplicate,2,34,4,1,1280,1,11_fountain13,11_controller,11,11,Big-visBig,1,1,
Cora-48-ssreplicate,1,35,4,1,1334,1,17_pinecone,17_hotairballoon2,17,17,Big-visBig,1,1,
Cora-48-ssreplicate,1,36,4,2,1294,1,14_washingMachine,14_perfume,14,14,Small-visBig,4,2,
Cora-48-ssreplicate,1,37,4,2,1722,1,08_uprightpiano,08_changepurse,8,8,Small-visBig,4,2,
Cora-48-ssreplicate,2,38,4,2,1553,1,17_pinecone,17_hotairballoon2,17,17,Small-visBig,4,2,
Cora-48-ssreplicate,2,39,4,1,1169,1,19_refrigerator,19_garlic,19,19,Big-visBig,1,1,
Cora-48-ssreplicate,1,40,4,1,1745,1,02_seashell,02_carousel,2,2,Big-visBig,1,1,
Cora-48-ssreplicate,1,41,4,1,1430,1,14_perfume,14_washingMachine,14,14,Big-visBig,1,1,
Cora-48-ssreplicate,2,42,4,2,1529,1,08_changepurse,08_uprightpiano,8,8,Small-visBig,4,2,
Cora-48-ssreplicate,1,43,4,2,1761,1,17_hotairballoon2,17_pinecone,17,17,Small-visBig,4,2,
Cora-48-ssreplicate,2,44,4,1,1360,1,15_couch2,15_scotchtape,15,15,Big-visBig,1,1,
Cora-48-ssreplicate,1,45,4,2,1147,1,11_fountain13,11_controller,11,11,Small-visBig,4,2,
Cora-48-ssreplicate,2,46,4,2,1333,1,16_clock,16_garbagecan,16,16,Small-visBig,4,2,
Cora-48-ssreplicate,1,47,4,1,1104,1,01_apple,01_desk,1,1,Big-visBig,1,1,
Cora-48-ssreplicate,2,48,4,1,1141,1,04_tractor11,04_camera,4,4,Big-visBig,1,1,
Cora-48-ssreplicate,1,49,4,2,1732,1,06_parthenon,06_cable,6,6,Small-visBig,4,2,
Cora-48-ssreplicate,1,50,4,1,1099,1,12_pencil sharpener 5,12_bookcase,12,12,Big-visBig,1,1,
Cora-48-ssreplicate,2,51,4,1,1065,1,17_hotairballoon2,17_pinecone,17,17,Big-visBig,1,1,
Cora-48-ssreplicate,2,52,4,2,1135,1,18_ringbox03,18_hotairballoon,18,18,Small-visBig,4,2,
Cora-48-ssreplicate,2,53,4,1,1902,1,06_parthenon,06_cable,6,6,Big-visBig,1,1,
Cora-48-ssreplicate,1,54,4,2,1533,1,12_bookcase,12_pencil sharpener 5,12,12,Small-visBig,4,2,
Cora-48-ssreplicate,1,55,4,1,1110,1,05_button,05_wagon,5,5,Big-visBig,1,1,
Cora-48-ssreplicate,2,56,4,2,1153,1,19_garlic,19_refrigerator,19,19,Small-visBig,4,2,
Cora-48-ssreplicate,1,57,4,2,1153,1,18_hotairballoon,18_ringbox03,18,18,Small-visBig,4,2,
Drew-48-ssreplicate,1,12,5,1,1520,1,20_ornament,20_wheelchair,20,20,Big-visBig,1,1,
Drew-48-ssreplicate,2,13,5,1,1739,1,19_refrigerator,19_garlic,19,19,Big-visBig,1,1,
Drew-48-ssreplicate,1,15,5,1,1221,1,04_camera,04_tractor11,4,4,Big-visBig,1,1,
Drew-48-ssreplicate,1,16,5,2,1748,1,13_piano,13_rubberduck,13,13,Small-visBig,4,2,
Drew-48-ssreplicate,1,17,5,1,1182,1,12_pencil sharpener 5,12_bookcase,12,12,Big-visBig,1,1,
Drew-48-ssreplicate,2,18,5,1,1052,1,16_garbagecan,16_clock,16,16,Big-visBig,1,1,
Drew-48-ssreplicate,1,19,5,2,1218,1,14_washingMachine,14_perfume,14,14,Small-visBig,4,2,
Drew-48-ssreplicate,2,20,5,2,2468,1,10_bowtiepasta,10_bison,10,10,Small-visBig,4,2,
Drew-48-ssreplicate,2,21,5,1,1661,1,18_hotairballoon,18_ringbox03,18,18,Big-visBig,1,1,
Drew-48-ssreplicate,2,22,5,2,1202,1,16_clock,16_garbagecan,16,16,Small-visBig,4,2,
Drew-48-ssreplicate,1,23,5,1,1462,1,07_dice,07_grill,7,7,Big-visBig,1,1,
Drew-48-ssreplicate,1,24,5,2,1603,1,01_desk,01_apple,1,1,Small-visBig,4,2,
Drew-48-ssreplicate,1,25,5,2,2339,1,02_carousel,02_seashell,2,2,Small-visBig,4,2,
Drew-48-ssreplicate,2,26,5,2,1610,1,09_mushroom,09_armchair,9,9,Small-visBig,4,2,
Drew-48-ssreplicate,1,27,5,1,1590,1,02_seashell,02_carousel,2,2,Big-visBig,1,1,
Drew-48-ssreplicate,2,28,5,1,1130,1,09_armchair,09_mushroom,9,9,Big-visBig,1,1,
Drew-48-ssreplicate,2,29,5,2,1408,1,04_camera,04_tractor11,4,4,Small-visBig,4,2,
Drew-48-ssreplicate,1,30,5,2,1359,1,04_tractor11,04_camera,4,4,Small-visBig,4,2,
Drew-48-ssreplicate,2,31,5,1,1168,1,12_bookcase,12_pencil sharpener 5,12,12,Big-visBig,1,1,
Drew-48-ssreplicate,1,32,5,1,1420,1,03_baseball 2,03_sofachair,3,3,Big-visBig,1,1,
Drew-48-ssreplicate,1,33,5,2,1166,1,12_bookcase,12_pencil sharpener 5,12,12,Small-visBig,4,2,
Drew-48-ssreplicate,2,34,5,2,1352,1,15_scotchtape,15_couch2,15,15,Small-visBig,4,2,
Drew-48-ssreplicate,1,35,5,1,1203,1,19_garlic,19_refrigerator,19,19,Big-visBig,1,1,
Drew-48-ssreplicate,2,36,5,1,1183,1,15_couch2,15_scotchtape,15,15,Big-visBig,1,1,
Drew-48-ssreplicate,1,37,5,1,1053,1,14_perfume,14_washingMachine,14,14,Big-visBig,1,1,
Drew-48-ssreplicate,2,38,5,2,1164,1,11_controller,11_fountain13,11,11,Small-visBig,4,2,
Drew-48-ssreplicate,2,39,5,1,1287,1,11_fountain13,11_controller,11,11,Big-visBig,1,1,
Drew-48-ssreplicate,1,40,5,2,1269,1,18_hotairballoon,18_ringbox03,18,18,Small-visBig,4,2,
Drew-48-ssreplicate,1,41,5,2,1187,1,19_refrigerator,19_garlic,19,19,Small-visBig,4,2,
Drew-48-ssreplicate,2,42,5,2,1882,1,02_seashell,02_carousel,2,2,Small-visBig,4,2,
Drew-48-ssreplicate,2,43,5,1,1236,1,20_wheelchair,20_ornament,20,20,Big-visBig,1,1,
Drew-48-ssreplicate,1,44,5,1,1394,1,05_button,05_wagon,5,5,Big-visBig,1,1,
Drew-48-ssreplicate,2,45,5,1,1046,1,13_piano,13_rubberduck,13,13,Big-visBig,1,1,
Drew-48-ssreplicate,1,46,5,2,1564,1,09_armchair,09_mushroom,9,9,Small-visBig,4,2,
Drew-48-ssreplicate,1,47,5,1,1349,1,10_bowtiepasta,10_bison,10,10,Big-visBig,1,1,
Drew-48-ssreplicate,2,48,5,2,1793,1,06_cable,06_parthenon,6,6,Small-visBig,4,2,
Drew-48-ssreplicate,2,49,5,1,1233,1,17_hotairballoon2,17_pinecone,17,17,Big-visBig,1,1,
Drew-48-ssreplicate,1,50,5,1,1177,1,06_cable,06_parthenon,6,6,Big-visBig,1,1,
Drew-48-ssreplicate,2,52,5,2,1429,1,07_dice,07_grill,7,7,Small-visBig,4,2,
Drew-48-ssreplicate,2,53,5,1,1597,1,14_washingMachine,14_perfume,14,14,Big-visBig,1,1,
Drew-48-ssreplicate,2,54,5,2,1151,1,18_ringbox03,18_hotairballoon,18,18,Small-visBig,4,2,
Drew-48-ssreplicate,1,55,5,2,1502,1,17_hotairballoon2,17_pinecone,17,17,Small-visBig,4,2,
Drew-48-ssreplicate,1,56,5,1,1452,1,17_pinecone,17_hotairballoon2,17,17,Big-visBig,1,1,
Drew-48-ssreplicate,1,57,5,1,1397,1,18_ringbox03,18_hotairballoon,18,18,Big-visBig,1,1,
Drew-48-ssreplicate,2,58,5,2,1170,1,12_pencil sharpener 5,12_bookcase,12,12,Small-visBig,4,2,
Drew-48-ssreplicate,1,59,5,2,1327,1,06_parthenon,06_cable,6,6,Small-visBig,4,2,
Drew-48-ssreplicate,2,60,5,1,1243,1,05_wagon,05_button,5,5,Big-visBig,1,1,
Hailey-48-ssduplicate,1,11,6,2,1867,1,04_tractor11,04_camera,4,4,Small-visBig,4,2,
Hailey-48-ssduplicate,2,12,6,1,1520,1,01_desk,01_apple,1,1,Big-visBig,1,1,
Hailey-48-ssduplicate,1,13,6,1,1136,1,01_apple,01_desk,1,1,Big-visBig,1,1,
Hailey-48-ssduplicate,2,14,6,1,1359,1,05_wagon,05_button,5,5,Big-visBig,1,1,
Hailey-48-ssduplicate,1,15,6,2,1297,1,09_armchair,09_mushroom,9,9,Small-visBig,4,2,
Hailey-48-ssduplicate,2,16,6,2,1193,1,04_camera,04_tractor11,4,4,Small-visBig,4,2,
Hailey-48-ssduplicate,1,17,6,2,1349,1,11_fountain13,11_controller,11,11,Small-visBig,4,2,
Hailey-48-ssduplicate,1,18,6,1,1086,1,18_ringbox03,18_hotairballoon,18,18,Big-visBig,1,1,
Hailey-48-ssduplicate,2,19,6,2,1449,1,20_ornament,20_wheelchair,20,20,Small-visBig,4,2,
Hailey-48-ssduplicate,2,20,6,1,2373,1,09_armchair,09_mushroom,9,9,Big-visBig,1,1,
Hailey-48-ssduplicate,1,21,6,2,1367,1,14_washingMachine,14_perfume,14,14,Small-visBig,4,2,
Hailey-48-ssduplicate,2,22,6,1,1054,1,14_washingMachine,14_perfume,14,14,Big-visBig,1,1,
Hailey-48-ssduplicate,1,23,6,1,1934,1,16_clock,16_garbagecan,16,16,Big-visBig,1,1,
Hailey-48-ssduplicate,2,24,6,2,2396,1,15_scotchtape,15_couch2,15,15,Small-visBig,4,2,
Hailey-48-ssduplicate,1,25,6,1,1191,1,03_baseball 2,03_sofachair,3,3,Big-visBig,1,1,
Hailey-48-ssduplicate,2,26,6,1,1304,1,18_hotairballoon,18_ringbox03,18,18,Big-visBig,1,1,
Hailey-48-ssduplicate,2,27,6,2,2665,1,18_ringbox03,18_hotairballoon,18,18,Small-visBig,4,2,
Hailey-48-ssduplicate,1,28,6,2,1535,1,18_hotairballoon,18_ringbox03,18,18,Small-visBig,4,2,
Hailey-48-ssduplicate,1,29,6,2,2514,1,10_bison,10_bowtiepasta,10,10,Small-visBig,4,2,
Hailey-48-ssduplicate,2,30,6,2,1197,1,08_changepurse,08_uprightpiano,8,8,Small-visBig,4,2,
Hailey-48-ssduplicate,1,31,6,1,1431,1,19_garlic,19_refrigerator,19,19,Big-visBig,1,1,
Hailey-48-ssduplicate,2,32,6,1,1703,1,08_uprightpiano,08_changepurse,8,8,Big-visBig,1,1,
Hailey-48-ssduplicate,2,33,6,2,1916,1,02_seashell,02_carousel,2,2,Small-visBig,4,2,
Hailey-48-ssduplicate,1,34,6,2,1918,1,15_couch2,15_scotchtape,15,15,Small-visBig,4,2,
Hailey-48-ssduplicate,1,35,6,1,2129,1,15_scotchtape,15_couch2,15,15,Big-visBig,1,1,
Hailey-48-ssduplicate,2,36,6,1,3329,1,20_wheelchair,20_ornament,20,20,Big-visBig,1,1,
Hailey-48-ssduplicate,2,37,6,2,1947,1,10_bowtiepasta,10_bison,10,10,Small-visBig,4,2,
Hailey-48-ssduplicate,2,38,6,1,1241,1,04_tractor11,04_camera,4,4,Big-visBig,1,1,
Hailey-48-ssduplicate,1,39,6,2,1519,1,17_hotairballoon2,17_pinecone,17,17,Small-visBig,4,2,
Hailey-48-ssduplicate,1,40,6,1,2090,1,02_seashell,02_carousel,2,2,Big-visBig,1,1,
Hailey-48-ssduplicate,1,41,6,2,3756,1,13_piano,13_rubberduck,13,13,Small-visBig,4,2,
Hailey-48-ssduplicate,2,42,6,2,1303,1,03_baseball 2,03_sofachair,3,3,Small-visBig,4,2,
Hailey-48-ssduplicate,1,43,6,1,1192,1,05_button,05_wagon,5,5,Big-visBig,1,1,
Hailey-48-ssduplicate,2,44,6,1,1024,1,03_sofachair,03_baseball 2,3,3,Big-visBig,1,1,
Hailey-48-ssduplicate,2,45,6,1,3119,1,10_bison,10_bowtiepasta,10,10,Big-visBig,1,1,
Hailey-48-ssduplicate,2,46,6,2,1432,1,11_controller,11_fountain13,11,11,Small-visBig,4,2,
Hailey-48-ssduplicate,1,47,6,1,1415,1,12_pencil sharpener 5,12_bookcase,12,12,Big-visBig,1,1,
Hailey-48-ssduplicate,1,48,6,2,1275,1,02_carousel,02_seashell,2,2,Small-visBig,4,2,
Hailey-48-ssduplicate,1,49,6,2,1599,1,16_garbagecan,16_clock,16,16,Small-visBig,4,2,
Hailey-48-ssduplicate,1,50,6,1,1343,1,04_camera,04_tractor11,4,4,Big-visBig,1,1,
Hailey-48-ssduplicate,2,51,6,2,1661,1,19_garlic,19_refrigerator,19,19,Small-visBig,4,2,
Hailey-48-ssduplicate,2,52,6,1,2651,1,16_garbagecan,16_clock,16,16,Big-visBig,1,1,
Hailey-48-ssduplicate,2,53,6,1,2068,1,17_hotairballoon2,17_pinecone,17,17,Big-visBig,1,1,
Hailey-48-ssduplicate,1,54,6,2,1272,1,01_desk,01_apple,1,1,Small-visBig,4,2,
Hailey-48-ssduplicate,1,55,6,1,1400,1,14_perfume,14_washingMachine,14,14,Big-visBig,1,1,
Hailey-48-ssduplicate,2,56,6,2,1579,1,09_mushroom,09_armchair,9,9,Small-visBig,4,2,
Hailey-48-ssduplicate,1,57,6,2,1586,1,19_refrigerator,19_garlic,19,19,Small-visBig,4,2,
Haylee-48-ssrplicate,1,11,7,1,1180,1,16_clock,16_garbagecan,16,16,Big-visBig,1,1,
Haylee-48-ssrplicate,2,12,7,1,1149,1,18_hotairballoon,18_ringbox03,18,18,Big-visBig,1,1,
Haylee-48-ssrplicate,1,13,7,2,1766,1,16_garbagecan,16_clock,16,16,Small-visBig,4,2,
Haylee-48-ssrplicate,2,14,7,2,1807,1,09_mushroom,09_armchair,9,9,Small-visBig,4,2,
Haylee-48-ssrplicate,2,15,7,1,1050,1,15_couch2,15_scotchtape,15,15,Big-visBig,1,1,
Haylee-48-ssrplicate,1,16,7,1,2688,1,05_button,05_wagon,5,5,Big-visBig,1,1,
Haylee-48-ssrplicate,1,17,7,1,1536,1,19_garlic,19_refrigerator,19,19,Big-visBig,1,1,
Haylee-48-ssrplicate,2,18,7,2,2462,1,19_garlic,19_refrigerator,19,19,Small-visBig,4,2,
Haylee-48-ssrplicate,2,19,7,1,1420,1,04_tractor11,04_camera,4,4,Big-visBig,1,1,
Haylee-48-ssrplicate,1,20,7,2,2219,1,12_bookcase,12_pencil sharpener 5,12,12,Small-visBig,4,2,
Haylee-48-ssrplicate,2,21,7,1,1443,1,14_washingMachine,14_perfume,14,14,Big-visBig,1,1,
Haylee-48-ssrplicate,2,22,7,2,1102,1,01_apple,01_desk,1,1,Small-visBig,4,2,
Haylee-48-ssrplicate,1,23,7,1,1168,1,18_ringbox03,18_hotairballoon,18,18,Big-visBig,1,1,
Haylee-48-ssrplicate,1,24,7,2,923,1,02_carousel,02_seashell,2,2,Small-visBig,4,2,
Haylee-48-ssrplicate,2,26,7,1,890,1,07_grill,07_dice,7,7,Big-visBig,1,1,
Haylee-48-ssrplicate,1,27,7,2,1537,1,18_hotairballoon,18_ringbox03,18,18,Small-visBig,4,2,
Haylee-48-ssrplicate,1,28,7,1,2571,1,17_pinecone,17_hotairballoon2,17,17,Big-visBig,1,1,
Haylee-48-ssrplicate,2,29,7,2,1991,1,17_pinecone,17_hotairballoon2,17,17,Small-visBig,4,2,
Haylee-48-ssrplicate,1,30,7,1,1660,1,08_changepurse,08_uprightpiano,8,8,Big-visBig,1,1,
Haylee-48-ssrplicate,2,31,7,1,1969,1,10_bison,10_bowtiepasta,10,10,Big-visBig,1,1,
Haylee-48-ssrplicate,1,32,7,2,1879,1,03_sofachair,03_baseball 2,3,3,Small-visBig,4,2,
Haylee-48-ssrplicate,2,33,7,1,1752,1,11_fountain13,11_controller,11,11,Big-visBig,1,1,
Haylee-48-ssrplicate,1,34,7,1,1682,1,10_bowtiepasta,10_bison,10,10,Big-visBig,1,1,
Haylee-48-ssrplicate,1,35,7,2,1693,1,07_grill,07_dice,7,7,Small-visBig,4,2,
Haylee-48-ssrplicate,2,36,7,2,1382,1,12_pencil sharpener 5,12_bookcase,12,12,Small-visBig,4,2,
Haylee-48-ssrplicate,2,37,7,1,2951,1,20_wheelchair,20_ornament,20,20,Big-visBig,1,1,
Haylee-48-ssrplicate,2,38,7,2,2383,1,04_camera,04_tractor11,4,4,Small-visBig,4,2,
Haylee-48-ssrplicate,1,39,7,2,1304,1,05_wagon,05_button,5,5,Small-visBig,4,2,
Haylee-48-ssrplicate,1,41,7,2,1976,1,11_fountain13,11_controller,11,11,Small-visBig,4,2,
Haylee-48-ssrplicate,2,42,7,1,2732,1,16_garbagecan,16_clock,16,16,Big-visBig,1,1,
Haylee-48-ssrplicate,1,43,7,1,1480,1,09_mushroom,09_armchair,9,9,Big-visBig,1,1,
Haylee-48-ssrplicate,2,44,7,2,1228,1,07_dice,07_grill,7,7,Small-visBig,4,2,
Haylee-48-ssrplicate,1,45,7,2,1728,1,09_armchair,09_mushroom,9,9,Small-visBig,4,2,
Haylee-48-ssrplicate,1,46,7,1,1551,1,20_ornament,20_wheelchair,20,20,Big-visBig,1,1,
Haylee-48-ssrplicate,2,47,7,2,1913,1,10_bowtiepasta,10_bison,10,10,Small-visBig,4,2,
Haylee-48-ssrplicate,2,48,7,1,2438,1,06_parthenon,06_cable,6,6,Big-visBig,1,1,
Haylee-48-ssrplicate,1,49,7,1,1201,1,12_pencil sharpener 5,12_bookcase,12,12,Big-visBig,1,1,
Haylee-48-ssrplicate,2,50,7,2,1566,1,20_ornament,20_wheelchair,20,20,Small-visBig,4,2,
Haylee-48-ssrplicate,2,51,7,1,2753,1,19_refrigerator,19_garlic,19,19,Big-visBig,1,1,
Haylee-48-ssrplicate,1,52,7,2,1470,1,19_refrigerator,19_garlic,19,19,Small-visBig,4,2,
Haylee-48-ssrplicate,1,53,7,2,1515,1,14_washingMachine,14_perfume,14,14,Small-visBig,4,2,
Haylee-48-ssrplicate,2,54,7,1,1567,1,01_desk,01_apple,1,1,Big-visBig,1,1,
Haylee-48-ssrplicate,1,55,7,1,1078,1,06_cable,06_parthenon,6,6,Big-visBig,1,1,
Haylee-48-ssrplicate,2,56,7,2,1461,1,08_changepurse,08_uprightpiano,8,8,Small-visBig,4,2,
Haylee-48-ssrplicate,2,57,7,1,1748,1,03_sofachair,03_baseball 2,3,3,Big-visBig,1,1,
Haylee-48-ssrplicate,1,58,7,2,1298,1,01_desk,01_apple,1,1,Small-visBig,4,2,
Herbie-48-ssrepilcate,1,11,8,1,995,1,18_ringbox03,18_hotairballoon,18,18,Big-visBig,1,1,
Herbie-48-ssrepilcate,1,12,8,2,957,1,10_bison,10_bowtiepasta,10,10,Small-visBig,4,2,
Herbie-48-ssrepilcate,2,13,8,1,1452,1,20_wheelchair,20_ornament,20,20,Big-visBig,1,1,
Herbie-48-ssrepilcate,1,14,8,2,1840,1,05_wagon,05_button,5,5,Small-visBig,4,2,
Herbie-48-ssrepilcate,1,15,8,1,862,1,17_pinecone,17_hotairballoon2,17,17,Big-visBig,1,1,
Herbie-48-ssrepilcate,2,16,8,2,1274,1,10_bowtiepasta,10_bison,10,10,Small-visBig,4,2,
Herbie-48-ssrepilcate,2,17,8,1,956,1,02_carousel,02_seashell,2,2,Big-visBig,1,1,
Herbie-48-ssrepilcate,1,18,8,2,1521,1,01_desk,01_apple,1,1,Small-visBig,4,2,
Herbie-48-ssrepilcate,1,19,8,1,1186,1,20_ornament,20_wheelchair,20,20,Big-visBig,1,1,
Herbie-48-ssrepilcate,2,20,8,2,1004,1,01_apple,01_desk,1,1,Small-visBig,4,2,
Herbie-48-ssrepilcate,1,21,8,2,1428,1,09_armchair,09_mushroom,9,9,Small-visBig,4,2,
Herbie-48-ssrepilcate,2,22,8,1,1133,1,19_refrigerator,19_garlic,19,19,Big-visBig,1,1,
Herbie-48-ssrepilcate,1,23,8,1,816,1,10_bowtiepasta,10_bison,10,10,Big-visBig,1,1,
Herbie-48-ssrepilcate,2,24,8,2,1127,1,07_dice,07_grill,7,7,Small-visBig,4,2,
Herbie-48-ssrepilcate,1,25,8,1,902,1,16_clock,16_garbagecan,16,16,Big-visBig,1,1,
Herbie-48-ssrepilcate,2,26,8,2,1067,1,14_perfume,14_washingMachine,14,14,Small-visBig,4,2,
Herbie-48-ssrepilcate,1,27,8,2,1720,1,14_washingMachine,14_perfume,14,14,Small-visBig,4,2,
Herbie-48-ssrepilcate,2,28,8,1,956,1,03_sofachair,03_baseball 2,3,3,Big-visBig,1,1,
Herbie-48-ssrepilcate,1,29,8,1,1706,1,09_mushroom,09_armchair,9,9,Big-visBig,1,1,
Herbie-48-ssrepilcate,2,30,8,2,832,1,02_seashell,02_carousel,2,2,Small-visBig,4,2,
Herbie-48-ssrepilcate,2,31,8,1,950,1,01_desk,01_apple,1,1,Big-visBig,1,1,
Herbie-48-ssrepilcate,1,32,8,2,1407,1,06_parthenon,06_cable,6,6,Small-visBig,4,2,
Herbie-48-ssrepilcate,2,33,8,2,1042,1,15_scotchtape,15_couch2,15,15,Small-visBig,4,2,
Herbie-48-ssrepilcate,2,34,8,1,1017,1,13_piano,13_rubberduck,13,13,Big-visBig,1,1,
Herbie-48-ssrepilcate,1,35,8,2,1510,1,17_hotairballoon2,17_pinecone,17,17,Small-visBig,4,2,
Herbie-48-ssrepilcate,1,36,8,1,3176,1,03_baseball 2,03_sofachair,3,3,Big-visBig,1,1,
Herbie-48-ssrepilcate,1,37,8,1,1320,1,01_apple,01_desk,1,1,Big-visBig,1,1,
Herbie-48-ssrepilcate,2,38,8,2,1175,1,12_pencil sharpener 5,12_bookcase,12,12,Small-visBig,4,2,
Herbie-48-ssrepilcate,1,39,8,2,1476,1,12_bookcase,12_pencil sharpener 5,12,12,Small-visBig,4,2,
Herbie-48-ssrepilcate,2,40,8,1,1324,1,04_tractor11,04_camera,4,4,Big-visBig,1,1,
Herbie-48-ssrepilcate,1,41,8,2,998,1,20_wheelchair,20_ornament,20,20,Small-visBig,4,2,
Herbie-48-ssrepilcate,2,42,8,1,1622,1,09_armchair,09_mushroom,9,9,Big-visBig,1,1,
Herbie-48-ssrepilcate,2,43,8,2,1427,1,05_button,05_wagon,5,5,Small-visBig,4,2,
Herbie-48-ssrepilcate,1,44,8,1,1387,1,02_seashell,02_carousel,2,2,Big-visBig,1,1,
Herbie-48-ssrepilcate,2,45,8,2,1179,1,08_changepurse,08_uprightpiano,8,8,Small-visBig,4,2,
Herbie-48-ssrepilcate,2,46,8,1,1065,1,12_bookcase,12_pencil sharpener 5,12,12,Big-visBig,1,1,
Herbie-48-ssrepilcate,1,47,8,1,2011,1,07_dice,07_grill,7,7,Big-visBig,1,1,
Herbie-48-ssrepilcate,1,48,8,2,1237,1,04_tractor11,04_camera,4,4,Small-visBig,4,2,
Herbie-48-ssrepilcate,1,49,8,2,1266,1,11_fountain13,11_controller,11,11,Small-visBig,4,2,
Herbie-48-ssrepilcate,2,50,8,2,1179,1,13_rubberduck,13_piano,13,13,Small-visBig,4,2,
Herbie-48-ssrepilcate,2,51,8,1,871,1,06_parthenon,06_cable,6,6,Big-visBig,1,1,
Herbie-48-ssrepilcate,1,52,8,1,897,1,08_changepurse,08_uprightpiano,8,8,Big-visBig,1,1,
Herbie-48-ssrepilcate,2,53,8,1,927,1,05_wagon,05_button,5,5,Big-visBig,1,1,
Herbie-48-ssrepilcate,1,54,8,1,1212,1,19_garlic,19_refrigerator,19,19,Big-visBig,1,1,
Herbie-48-ssrepilcate,1,55,8,2,1292,1,03_sofachair,03_baseball 2,3,3,Small-visBig,4,2,
Herbie-48-ssrepilcate,2,56,8,2,1275,1,11_controller,11_fountain13,11,11,Small-visBig,4,2,
Herbie-48-ssrepilcate,2,57,8,1,786,1,10_bison,10_bowtiepasta,10,10,Big-visBig,1,1,
Jung-48-ssreplicate,2,11,9,2,1102,1,18_ringbox03,18_hotairballoon,18,18,Small-visBig,4,2,
Jung-48-ssreplicate,1,12,9,2,1452,1,20_wheelchair,20_ornament,20,20,Small-visBig,4,2,
Jung-48-ssreplicate,2,13,9,2,2132,1,10_bowtiepasta,10_bison,10,10,Small-visBig,4,2,
Jung-48-ssreplicate,2,14,9,1,1241,1,04_tractor11,04_camera,4,4,Big-visBig,1,1,
Jung-48-ssreplicate,1,15,9,1,1235,1,16_clock,16_garbagecan,16,16,Big-visBig,1,1,
Jung-48-ssreplicate,1,16,9,2,1318,1,19_refrigerator,19_garlic,19,19,Small-visBig,4,2,
Jung-48-ssreplicate,1,17,9,1,1873,1,14_perfume,14_washingMachine,14,14,Big-visBig,1,1,
Jung-48-ssreplicate,2,18,9,1,1186,1,09_armchair,09_mushroom,9,9,Big-visBig,1,1,
Jung-48-ssreplicate,1,19,9,2,1189,1,03_sofachair,03_baseball 2,3,3,Small-visBig,4,2,
Jung-48-ssreplicate,2,20,9,2,1210,1,06_cable,06_parthenon,6,6,Small-visBig,4,2,
Jung-48-ssreplicate,2,21,9,2,1153,1,16_clock,16_garbagecan,16,16,Small-visBig,4,2,
Jung-48-ssreplicate,2,22,9,1,2053,1,05_wagon,05_button,5,5,Big-visBig,1,1,
Jung-48-ssreplicate,1,23,9,1,1798,1,13_rubberduck,13_piano,13,13,Big-visBig,1,1,
Jung-48-ssreplicate,1,24,9,2,1334,1,11_fountain13,11_controller,11,11,Small-visBig,4,2,
Jung-48-ssreplicate,1,25,9,2,2193,1,09_armchair,09_mushroom,9,9,Small-visBig,4,2,
Jung-48-ssreplicate,2,26,9,1,1004,1,20_wheelchair,20_ornament,20,20,Big-visBig,1,1,
Jung-48-ssreplicate,2,27,9,2,2026,1,07_dice,07_grill,7,7,Small-visBig,4,2,
Jung-48-ssreplicate,1,28,9,1,1699,1,11_controller,11_fountain13,11,11,Big-visBig,1,1,
Jung-48-ssreplicate,2,29,9,2,1500,1,01_apple,01_desk,1,1,Small-visBig,4,2,
Jung-48-ssreplicate,1,30,9,2,1932,1,12_bookcase,12_pencil sharpener 5,12,12,Small-visBig,4,2,
Jung-48-ssreplicate,1,31,9,1,1317,1,19_garlic,19_refrigerator,19,19,Big-visBig,1,1,
Jung-48-ssreplicate,2,32,9,1,1003,1,17_hotairballoon2,17_pinecone,17,17,Big-visBig,1,1,
Jung-48-ssreplicate,2,33,9,2,995,1,09_mushroom,09_armchair,9,9,Small-visBig,4,2,
Jung-48-ssreplicate,1,34,9,2,2438,1,15_couch2,15_scotchtape,15,15,Small-visBig,4,2,
Jung-48-ssreplicate,1,35,9,1,1186,1,20_ornament,20_wheelchair,20,20,Big-visBig,1,1,
Jung-48-ssreplicate,2,36,9,1,1354,1,06_parthenon,06_cable,6,6,Big-visBig,1,1,
Jung-48-ssreplicate,2,37,9,2,1087,1,19_garlic,19_refrigerator,19,19,Small-visBig,4,2,
Jung-48-ssreplicate,1,38,9,2,3203,1,17_hotairballoon2,17_pinecone,17,17,Small-visBig,4,2,
Jung-48-ssreplicate,1,39,9,1,2194,1,04_camera,04_tractor11,4,4,Big-visBig,1,1,
Jung-48-ssreplicate,2,40,9,1,1314,1,16_garbagecan,16_clock,16,16,Big-visBig,1,1,
Jung-48-ssreplicate,2,41,9,2,2007,1,20_ornament,20_wheelchair,20,20,Small-visBig,4,2,
Jung-48-ssreplicate,2,42,9,1,2973,1,01_desk,01_apple,1,1,Big-visBig,1,1,
Jung-48-ssreplicate,1,43,9,1,2348,1,07_dice,07_grill,7,7,Big-visBig,1,1,
Jung-48-ssreplicate,1,44,9,2,2258,1,04_tractor11,04_camera,4,4,Small-visBig,4,2,
Jung-48-ssreplicate,1,45,9,2,2140,1,10_bison,10_bowtiepasta,10,10,Small-visBig,4,2,
Jung-48-ssreplicate,2,46,9,2,1512,1,08_changepurse,08_uprightpiano,8,8,Small-visBig,4,2,
Jung-48-ssreplicate,2,47,9,1,1719,1,13_piano,13_rubberduck,13,13,Big-visBig,1,1,
Jung-48-ssreplicate,1,48,9,1,1630,1,03_baseball 2,03_sofachair,3,3,Big-visBig,1,1,
Jung-48-ssreplicate,1,49,9,1,2633,1,17_pinecone,17_hotairballoon2,17,17,Big-visBig,1,1,
Jung-48-ssreplicate,2,50,9,1,1506,1,02_carousel,02_seashell,2,2,Big-visBig,1,1,
Jung-48-ssreplicate,2,51,9,2,2473,1,05_button,05_wagon,5,5,Small-visBig,4,2,
Jung-48-ssreplicate,1,52,9,2,1813,1,14_washingMachine,14_perfume,14,14,Small-visBig,4,2,
Jung-48-ssreplicate,2,53,9,1,1481,1,15_couch2,15_scotchtape,15,15,Big-visBig,1,1,
Jung-48-ssreplicate,2,54,9,2,1659,1,14_perfume,14_washingMachine,14,14,Small-visBig,4,2,
Jung-48-ssreplicate,1,55,9,2,1719,1,05_wagon,05_button,5,5,Small-visBig,4,2,
Jung-48-ssreplicate,1,56,9,1,1872,1,06_cable,06_parthenon,6,6,Big-visBig,1,1,
Jung-48-ssreplicate,1,57,9,1,1883,1,02_seashell,02_carousel,2,2,Big-visBig,1,1,
Leo-48-ssreplicate,1,11,10,1,1265,1,15_scotchtape,15_couch2,15,15,Big-visBig,1,1,
Leo-48-ssreplicate,2,12,10,1,1470,1,02_carousel,02_seashell,2,2,Big-visBig,1,1,
Leo-48-ssreplicate,1,13,10,1,1132,1,13_rubberduck,13_piano,13,13,Big-visBig,1,1,
Leo-48-ssreplicate,2,14,10,2,1303,1,01_apple,01_desk,1,1,Small-visBig,4,2,
Leo-48-ssreplicate,2,15,10,1,1451,1,18_hotairballoon,18_ringbox03,18,18,Big-visBig,1,1,
Leo-48-ssreplicate,1,16,10,2,1808,1,06_parthenon,06_cable,6,6,Small-visBig,4,2,
Leo-48-ssreplicate,2,17,10,1,1178,1,06_parthenon,06_cable,6,6,Big-visBig,1,1,
Leo-48-ssreplicate,1,18,10,2,1236,1,19_refrigerator,19_garlic,19,19,Small-visBig,4,2,
Leo-48-ssreplicate,1,19,10,1,1134,1,18_ringbox03,18_hotairballoon,18,18,Big-visBig,1,1,
Leo-48-ssreplicate,2,20,10,2,1531,1,11_controller,11_fountain13,11,11,Small-visBig,4,2,
Leo-48-ssreplicate,1,21,10,1,1131,1,17_pinecone,17_hotairballoon2,17,17,Big-visBig,1,1,
Leo-48-ssreplicate,2,22,10,1,1223,1,04_tractor11,04_camera,4,4,Big-visBig,1,1,
Leo-48-ssreplicate,2,23,10,2,1807,1,06_cable,06_parthenon,6,6,Small-visBig,4,2,
Leo-48-ssreplicate,1,24,10,2,1181,1,11_fountain13,11_controller,11,11,Small-visBig,4,2,
Leo-48-ssreplicate,2,25,10,1,1019,1,17_hotairballoon2,17_pinecone,17,17,Big-visBig,1,1,
Leo-48-ssreplicate,2,26,10,2,1203,1,20_ornament,20_wheelchair,20,20,Small-visBig,4,2,
Leo-48-ssreplicate,1,27,10,2,2031,1,17_hotairballoon2,17_pinecone,17,17,Small-visBig,4,2,
Leo-48-ssreplicate,1,28,10,1,922,1,02_seashell,02_carousel,2,2,Big-visBig,1,1,
Leo-48-ssreplicate,1,29,10,1,1373,1,05_button,05_wagon,5,5,Big-visBig,1,1,
Leo-48-ssreplicate,1,30,10,2,1150,1,03_sofachair,03_baseball 2,3,3,Small-visBig,4,2,
Leo-48-ssreplicate,2,31,10,1,884,1,20_wheelchair,20_ornament,20,20,Big-visBig,1,1,
Leo-48-ssreplicate,2,32,10,2,1518,1,19_garlic,19_refrigerator,19,19,Small-visBig,4,2,
Leo-48-ssreplicate,1,33,10,1,1058,1,04_camera,04_tractor11,4,4,Big-visBig,1,1,
Leo-48-ssreplicate,1,34,10,2,1400,1,13_piano,13_rubberduck,13,13,Small-visBig,4,2,
Leo-48-ssreplicate,2,35,10,2,1480,1,09_mushroom,09_armchair,9,9,Small-visBig,4,2,
Leo-48-ssreplicate,2,36,10,1,1281,1,11_fountain13,11_controller,11,11,Big-visBig,1,1,
Leo-48-ssreplicate,1,37,10,2,1135,1,16_garbagecan,16_clock,16,16,Small-visBig,4,2,
Leo-48-ssreplicate,2,39,10,1,1303,1,05_wagon,05_button,5,5,Big-visBig,1,1,
Leo-48-ssreplicate,1,40,10,1,1218,1,16_clock,16_garbagecan,16,16,Big-visBig,1,1,
Leo-48-ssreplicate,2,41,10,2,1133,1,13_rubberduck,13_piano,13,13,Small-visBig,4,2,
Leo-48-ssreplicate,2,42,10,1,1662,1,09_armchair,09_mushroom,9,9,Big-visBig,1,1,
Leo-48-ssreplicate,1,43,10,1,1330,1,20_ornament,20_wheelchair,20,20,Big-visBig,1,1,
Leo-48-ssreplicate,1,44,10,2,1078,1,07_grill,07_dice,7,7,Small-visBig,4,2,
Leo-48-ssreplicate,2,45,10,1,1124,1,12_bookcase,12_pencil sharpener 5,12,12,Big-visBig,1,1,
Leo-48-ssreplicate,2,46,10,2,1436,1,18_ringbox03,18_hotairballoon,18,18,Small-visBig,4,2,
Leo-48-ssreplicate,1,47,10,2,2454,1,18_hotairballoon,18_ringbox03,18,18,Small-visBig,4,2,
Leo-48-ssreplicate,1,48,10,1,1683,1,11_controller,11_fountain13,11,11,Big-visBig,1,1,
Leo-48-ssreplicate,2,49,10,2,1282,1,02_seashell,02_carousel,2,2,Small-visBig,4,2,
Leo-48-ssreplicate,2,50,10,1,1111,1,07_grill,07_dice,7,7,Big-visBig,1,1,
Leo-48-ssreplicate,1,51,10,2,1417,1,14_washingMachine,14_perfume,14,14,Small-visBig,4,2,
Leo-48-ssreplicate,1,52,10,1,2009,1,19_garlic,19_refrigerator,19,19,Big-visBig,1,1,
Leo-48-ssreplicate,2,53,10,1,1184,1,19_refrigerator,19_garlic,19,19,Big-visBig,1,1,
Leo-48-ssreplicate,1,55,10,2,1952,1,04_tractor11,04_camera,4,4,Small-visBig,4,2,
Leo-48-ssreplicate,1,56,10,1,1899,1,10_bowtiepasta,10_bison,10,10,Big-visBig,1,1,
Leo-48-ssreplicate,1,57,10,2,3141,1,08_uprightpiano,08_changepurse,8,8,Small-visBig,4,2,
Leo-48-ssreplicate,2,58,10,2,1778,1,10_bowtiepasta,10_bison,10,10,Small-visBig,4,2,
Leo-48-ssreplicate,1,59,10,1,2252,1,01_apple,01_desk,1,1,Big-visBig,1,1,
Lindsay-48-ssduplicat,1,11,11,2,1010,1,06_parthenon,06_cable,6,6,Small-visBig,4,2,
Lindsay-48-ssduplicat,2,12,11,2,991,1,03_baseball 2,03_sofachair,3,3,Small-visBig,4,2,
Lindsay-48-ssduplicat,2,13,11,2,1002,1,15_scotchtape,15_couch2,15,15,Small-visBig,4,2,
Lindsay-48-ssduplicat,1,14,11,2,1115,1,10_bison,10_bowtiepasta,10,10,Small-visBig,4,2,
Lindsay-48-ssduplicat,2,15,11,1,767,1,15_couch2,15_scotchtape,15,15,Big-visBig,1,1,
Lindsay-48-ssduplicat,1,16,11,1,1200,1,11_controller,11_fountain13,11,11,Big-visBig,1,1,
Lindsay-48-ssduplicat,1,18,11,2,1272,1,02_carousel,02_seashell,2,2,Small-visBig,4,2,
Lindsay-48-ssduplicat,1,19,11,1,1247,1,09_mushroom,09_armchair,9,9,Big-visBig,1,1,
Lindsay-48-ssduplicat,2,20,11,1,1323,1,03_sofachair,03_baseball 2,3,3,Big-visBig,1,1,
Lindsay-48-ssduplicat,2,21,11,1,1279,1,07_grill,07_dice,7,7,Big-visBig,1,1,
Lindsay-48-ssduplicat,2,22,11,2,1443,1,17_pinecone,17_hotairballoon2,17,17,Small-visBig,4,2,
Lindsay-48-ssduplicat,1,23,11,2,1678,1,01_desk,01_apple,1,1,Small-visBig,4,2,
Lindsay-48-ssduplicat,1,24,11,1,2001,1,02_seashell,02_carousel,2,2,Big-visBig,1,1,
Lindsay-48-ssduplicat,2,25,11,2,1352,1,20_ornament,20_wheelchair,20,20,Small-visBig,4,2,
Lindsay-48-ssduplicat,2,26,11,1,1230,1,10_bison,10_bowtiepasta,10,10,Big-visBig,1,1,
Lindsay-48-ssduplicat,1,27,11,2,1077,1,12_bookcase,12_pencil sharpener 5,12,12,Small-visBig,4,2,
Lindsay-48-ssduplicat,1,28,11,1,1961,1,06_cable,06_parthenon,6,6,Big-visBig,1,1,
Lindsay-48-ssduplicat,1,29,11,1,1335,1,20_ornament,20_wheelchair,20,20,Big-visBig,1,1,
Lindsay-48-ssduplicat,2,30,11,2,1405,1,02_seashell,02_carousel,2,2,Small-visBig,4,2,
Lindsay-48-ssduplicat,2,31,11,1,1141,1,04_tractor11,04_camera,4,4,Big-visBig,1,1,
Lindsay-48-ssduplicat,1,32,11,2,1079,1,08_uprightpiano,08_changepurse,8,8,Small-visBig,4,2,
Lindsay-48-ssduplicat,2,33,11,1,1035,1,17_hotairballoon2,17_pinecone,17,17,Big-visBig,1,1,
Lindsay-48-ssduplicat,1,34,11,1,1029,1,08_changepurse,08_uprightpiano,8,8,Big-visBig,1,1,
Lindsay-48-ssduplicat,1,35,11,2,2273,1,20_wheelchair,20_ornament,20,20,Small-visBig,4,2,
Lindsay-48-ssduplicat,2,36,11,2,1136,1,01_apple,01_desk,1,1,Small-visBig,4,2,
Lindsay-48-ssduplicat,2,37,11,2,1199,1,10_bowtiepasta,10_bison,10,10,Small-visBig,4,2,
Lindsay-48-ssduplicat,2,38,11,1,987,1,01_desk,01_apple,1,1,Big-visBig,1,1,
Lindsay-48-ssduplicat,1,39,11,1,1178,1,07_dice,07_grill,7,7,Big-visBig,1,1,
Lindsay-48-ssduplicat,1,40,11,2,1350,1,13_piano,13_rubberduck,13,13,Small-visBig,4,2,
Lindsay-48-ssduplicat,2,41,11,2,1243,1,05_button,05_wagon,5,5,Small-visBig,4,2,
Lindsay-48-ssduplicat,1,42,11,2,1730,1,18_hotairballoon,18_ringbox03,18,18,Small-visBig,4,2,
Lindsay-48-ssduplicat,1,43,11,1,1516,1,12_pencil sharpener 5,12_bookcase,12,12,Big-visBig,1,1,
Lindsay-48-ssduplicat,2,44,11,1,1263,1,09_armchair,09_mushroom,9,9,Big-visBig,1,1,
Lindsay-48-ssduplicat,2,45,11,2,1302,1,16_clock,16_garbagecan,16,16,Small-visBig,4,2,
Lindsay-48-ssduplicat,1,46,11,1,1288,1,04_camera,04_tractor11,4,4,Big-visBig,1,1,
Lindsay-48-ssduplicat,2,47,11,1,866,1,14_washingMachine,14_perfume,14,14,Big-visBig,1,1,
Lindsay-48-ssduplicat,1,48,11,2,1250,1,15_couch2,15_scotchtape,15,15,Small-visBig,4,2,
Lindsay-48-ssduplicat,1,49,11,2,1008,1,03_sofachair,03_baseball 2,3,3,Small-visBig,4,2,
Lindsay-48-ssduplicat,2,50,11,1,866,1,13_piano,13_rubberduck,13,13,Big-visBig,1,1,
Lindsay-48-ssduplicat,1,51,11,1,1083,1,15_scotchtape,15_couch2,15,15,Big-visBig,1,1,
Lindsay-48-ssduplicat,2,52,11,2,1099,1,12_pencil sharpener 5,12_bookcase,12,12,Small-visBig,4,2,
Lindsay-48-ssduplicat,2,53,11,2,1034,1,13_rubberduck,13_piano,13,13,Small-visBig,4,2,
Lindsay-48-ssduplicat,2,54,11,1,871,1,02_carousel,02_seashell,2,2,Big-visBig,1,1,
Lindsay-48-ssduplicat,1,55,11,1,1437,1,18_ringbox03,18_hotairballoon,18,18,Big-visBig,1,1,
Lindsay-48-ssduplicat,1,56,11,2,1135,1,19_refrigerator,19_garlic,19,19,Small-visBig,4,2,
Lindsay-48-ssduplicat,1,57,11,2,1329,1,07_grill,07_dice,7,7,Small-visBig,4,2,
Lindsay-48-ssduplicat,1,58,11,1,1534,1,14_perfume,14_washingMachine,14,14,Big-visBig,1,1,
Mika-48-ssreplicate,2,11,12,1,927,1,06_parthenon,06_cable,6,6,Big-visBig,1,1,
Mika-48-ssreplicate,1,12,12,1,1051,1,14_perfume,14_washingMachine,14,14,Big-visBig,1,1,
Mika-48-ssreplicate,2,13,12,1,1499,1,14_washingMachine,14_perfume,14,14,Big-visBig,1,1,
Mika-48-ssreplicate,2,14,12,2,1013,1,19_garlic,19_refrigerator,19,19,Small-visBig,4,2,
Mika-48-ssreplicate,1,15,12,1,1028,1,17_pinecone,17_hotairballoon2,17,17,Big-visBig,1,1,
Mika-48-ssreplicate,1,16,12,2,1166,1,08_uprightpiano,08_changepurse,8,8,Small-visBig,4,2,
Mika-48-ssreplicate,2,17,12,1,862,1,12_bookcase,12_pencil sharpener 5,12,12,Big-visBig,1,1,
Mika-48-ssreplicate,2,18,12,2,683,1,13_rubberduck,13_piano,13,13,Small-visBig,4,2,
Mika-48-ssreplicate,1,19,12,1,1279,1,09_mushroom,09_armchair,9,9,Big-visBig,1,1,
Mika-48-ssreplicate,1,20,12,2,2075,1,03_sofachair,03_baseball 2,3,3,Small-visBig,4,2,
Mika-48-ssreplicate,2,21,12,2,1008,1,07_dice,07_grill,7,7,Small-visBig,4,2,
Mika-48-ssreplicate,1,22,12,1,1534,1,16_clock,16_garbagecan,16,16,Big-visBig,1,1,
Mika-48-ssreplicate,1,23,12,2,1112,1,07_grill,07_dice,7,7,Small-visBig,4,2,
Mika-48-ssreplicate,2,24,12,1,936,1,18_hotairballoon,18_ringbox03,18,18,Big-visBig,1,1,
Mika-48-ssreplicate,1,25,12,1,1020,1,20_ornament,20_wheelchair,20,20,Big-visBig,1,1,
Mika-48-ssreplicate,2,26,12,1,1618,1,01_desk,01_apple,1,1,Big-visBig,1,1,
Mika-48-ssreplicate,1,27,12,2,1315,1,12_bookcase,12_pencil sharpener 5,12,12,Small-visBig,4,2,
Mika-48-ssreplicate,2,28,12,2,1159,1,06_cable,06_parthenon,6,6,Small-visBig,4,2,
Mika-48-ssreplicate,1,29,12,2,1084,1,06_parthenon,06_cable,6,6,Small-visBig,4,2,
Mika-48-ssreplicate,1,30,12,1,719,1,01_apple,01_desk,1,1,Big-visBig,1,1,
Mika-48-ssreplicate,2,31,12,1,796,1,08_uprightpiano,08_changepurse,8,8,Big-visBig,1,1,
Mika-48-ssreplicate,2,32,12,2,894,1,05_button,05_wagon,5,5,Small-visBig,4,2,
Mika-48-ssreplicate,1,33,12,1,953,1,07_dice,07_grill,7,7,Big-visBig,1,1,
Mika-48-ssreplicate,2,34,12,1,892,1,04_tractor11,04_camera,4,4,Big-visBig,1,1,
Mika-48-ssreplicate,1,35,12,2,1524,1,09_armchair,09_mushroom,9,9,Small-visBig,4,2,
Mika-48-ssreplicate,2,36,12,2,1155,1,02_seashell,02_carousel,2,2,Small-visBig,4,2,
Mika-48-ssreplicate,2,37,12,2,888,1,01_apple,01_desk,1,1,Small-visBig,4,2,
Mika-48-ssreplicate,1,38,12,2,789,1,02_carousel,02_seashell,2,2,Small-visBig,4,2,
Mika-48-ssreplicate,1,40,12,1,1622,1,03_baseball 2,03_sofachair,3,3,Big-visBig,1,1,
Mika-48-ssreplicate,1,41,12,2,1485,1,20_wheelchair,20_ornament,20,20,Small-visBig,4,2,
Mika-48-ssreplicate,2,42,12,1,1098,1,02_carousel,02_seashell,2,2,Big-visBig,1,1,
Mika-48-ssreplicate,1,43,12,1,1677,1,18_ringbox03,18_hotairballoon,18,18,Big-visBig,1,1,
Mika-48-ssreplicate,2,44,12,2,1726,1,10_bowtiepasta,10_bison,10,10,Small-visBig,4,2,
Mika-48-ssreplicate,1,45,12,2,1329,1,19_refrigerator,19_garlic,19,19,Small-visBig,4,2,
Mika-48-ssreplicate,1,46,12,1,1165,1,11_controller,11_fountain13,11,11,Big-visBig,1,1,
Mika-48-ssreplicate,2,47,12,2,966,1,11_controller,11_fountain13,11,11,Small-visBig,4,2,
Mika-48-ssreplicate,2,48,12,1,939,1,07_grill,07_dice,7,7,Big-visBig,1,1,
Mika-48-ssreplicate,2,49,12,1,856,1,03_sofachair,03_baseball 2,3,3,Big-visBig,1,1,
Mika-48-ssreplicate,2,50,12,2,917,1,15_scotchtape,15_couch2,15,15,Small-visBig,4,2,
Mika-48-ssreplicate,1,51,12,1,1572,1,05_button,05_wagon,5,5,Big-visBig,1,1,
Mika-48-ssreplicate,1,52,12,2,1096,1,17_hotairballoon2,17_pinecone,17,17,Small-visBig,4,2,
Mika-48-ssreplicate,1,53,12,2,1123,1,04_tractor11,04_camera,4,4,Small-visBig,4,2,
Mika-48-ssreplicate,2,54,12,2,1161,1,08_changepurse,08_uprightpiano,8,8,Small-visBig,4,2,
Mika-48-ssreplicate,2,55,12,1,962,1,20_wheelchair,20_ornament,20,20,Big-visBig,1,1,
Mika-48-ssreplicate,1,56,12,1,1096,1,08_changepurse,08_uprightpiano,8,8,Big-visBig,1,1,
Mika-48-ssreplicate,2,57,12,2,1009,1,16_clock,16_garbagecan,16,16,Small-visBig,4,2,
Mika-48-ssreplicate,2,58,12,1,651,1,16_garbagecan,16_clock,16,16,Big-visBig,1,1,
Samantha-48-ssreplicate,1,11,13,1,1811,1,18_ringbox03,18_hotairballoon,18,18,Big-visBig,1,1,
Samantha-48-ssreplicate,2,12,13,1,1829,1,03_sofachair,03_baseball 2,3,3,Big-visBig,1,1,
Samantha-48-ssreplicate,2,13,13,1,942,1,13_piano,13_rubberduck,13,13,Big-visBig,1,1,
Samantha-48-ssreplicate,2,14,13,2,1786,1,11_controller,11_fountain13,11,11,Small-visBig,4,2,
Samantha-48-ssreplicate,1,15,13,1,1987,1,09_mushroom,09_armchair,9,9,Big-visBig,1,1,
Samantha-48-ssreplicate,1,16,13,2,1227,1,11_fountain13,11_controller,11,11,Small-visBig,4,2,
Samantha-48-ssreplicate,1,17,13,2,1994,1,01_desk,01_apple,1,1,Small-visBig,4,2,
Samantha-48-ssreplicate,2,18,13,2,1085,1,06_cable,06_parthenon,6,6,Small-visBig,4,2,
Samantha-48-ssreplicate,2,19,13,1,1644,1,15_couch2,15_scotchtape,15,15,Big-visBig,1,1,
Samantha-48-ssreplicate,1,20,13,1,1746,1,05_button,05_wagon,5,5,Big-visBig,1,1,
Samantha-48-ssreplicate,1,21,13,2,2712,1,19_refrigerator,19_garlic,19,19,Small-visBig,4,2,
Samantha-48-ssreplicate,2,25,13,2,1750,1,03_baseball 2,03_sofachair,3,3,Small-visBig,4,2,
Samantha-48-ssreplicate,2,26,13,1,1067,1,16_garbagecan,16_clock,16,16,Big-visBig,1,1,
Samantha-48-ssreplicate,1,27,13,1,1262,1,08_changepurse,08_uprightpiano,8,8,Big-visBig,1,1,
Samantha-48-ssreplicate,2,29,13,2,2358,1,16_clock,16_garbagecan,16,16,Small-visBig,4,2,
Samantha-48-ssreplicate,1,30,13,1,1671,1,07_dice,07_grill,7,7,Big-visBig,1,1,
Samantha-48-ssreplicate,2,31,13,1,1163,1,09_armchair,09_mushroom,9,9,Big-visBig,1,1,
Samantha-48-ssreplicate,1,32,13,2,1518,1,17_hotairballoon2,17_pinecone,17,17,Small-visBig,4,2,
Samantha-48-ssreplicate,2,33,13,1,1394,1,17_hotairballoon2,17_pinecone,17,17,Big-visBig,1,1,
Samantha-48-ssreplicate,2,34,13,2,998,1,04_camera,04_tractor11,4,4,Small-visBig,4,2,
Samantha-48-ssreplicate,1,36,13,2,745,1,16_garbagecan,16_clock,16,16,Small-visBig,4,2,
Samantha-48-ssreplicate,2,37,13,2,1509,1,12_pencil sharpener 5,12_bookcase,12,12,Small-visBig,4,2,
Samantha-48-ssreplicate,2,38,13,1,1414,1,14_washingMachine,14_perfume,14,14,Big-visBig,1,1,
Samantha-48-ssreplicate,1,39,13,1,1466,1,02_seashell,02_carousel,2,2,Big-visBig,1,1,
Samantha-48-ssreplicate,2,41,13,2,1624,1,10_bowtiepasta,10_bison,10,10,Small-visBig,4,2,
Samantha-48-ssreplicate,1,42,13,1,1764,1,15_scotchtape,15_couch2,15,15,Big-visBig,1,1,
Samantha-48-ssreplicate,1,43,13,2,1434,1,12_bookcase,12_pencil sharpener 5,12,12,Small-visBig,4,2,
Samantha-48-ssreplicate,2,44,13,1,947,1,19_refrigerator,19_garlic,19,19,Big-visBig,1,1,
Samantha-48-ssreplicate,2,45,13,1,1929,1,18_hotairballoon,18_ringbox03,18,18,Big-visBig,1,1,
Samantha-48-ssreplicate,1,46,13,1,2210,1,16_clock,16_garbagecan,16,16,Big-visBig,1,1,
Samantha-48-ssreplicate,1,47,13,2,3207,1,04_tractor11,04_camera,4,4,Small-visBig,4,2,
Samantha-48-ssreplicate,2,48,13,2,1492,1,09_mushroom,09_armchair,9,9,Small-visBig,4,2,
Samantha-48-ssreplicate,1,49,13,2,1900,1,06_parthenon,06_cable,6,6,Small-visBig,4,2,
Samantha-48-ssreplicate,2,50,13,1,1384,1,04_tractor11,04_camera,4,4,Big-visBig,1,1,
Samantha-48-ssreplicate,2,51,13,2,1186,1,05_button,05_wagon,5,5,Small-visBig,4,2,
Samantha-48-ssreplicate,1,52,13,1,1514,1,10_bowtiepasta,10_bison,10,10,Big-visBig,1,1,
Samantha-48-ssreplicate,1,53,13,1,2799,1,03_baseball 2,03_sofachair,3,3,Big-visBig,1,1,
Samantha-48-ssreplicate,2,54,13,1,2012,1,20_wheelchair,20_ornament,20,20,Big-visBig,1,1,
Samantha-48-ssreplicate,1,56,13,2,1947,1,07_grill,07_dice,7,7,Small-visBig,4,2,
Samantha-48-ssreplicate,2,57,13,1,1300,1,01_desk,01_apple,1,1,Big-visBig,1,1,
Samantha-48-ssreplicate,2,59,13,2,1577,1,20_ornament,20_wheelchair,20,20,Small-visBig,4,2,
Samantha-48-ssreplicate,1,60,13,2,1219,1,18_hotairballoon,18_ringbox03,18,18,Small-visBig,4,2,
Samantha-48-ssreplicate,2,61,13,2,1351,1,17_pinecone,17_hotairballoon2,17,17,Small-visBig,4,2,
Samantha-48-ssreplicate,1,62,13,2,1404,1,05_wagon,05_button,5,5,Small-visBig,4,2,
Samantha-48-ssreplicate,1,63,13,1,1331,1,11_controller,11_fountain13,11,11,Big-visBig,1,1,
Samantha-48-ssreplicate,2,65,13,2,1643,1,19_garlic,19_refrigerator,19,19,Small-visBig,4,2,
Samantha-48-ssreplicate,2,66,13,1,1124,1,07_grill,07_dice,7,7,Big-visBig,1,1,
Vaishnav48stroop,1,11,14,2,1723,1,12_bookcase,12_pencil sharpener 5,12,12,Small-visBig,4,2,
Vaishnav48stroop,1,12,14,1,1078,1,07_dice,07_grill,7,7,Big-visBig,1,1,
Vaishnav48stroop,2,13,14,1,832,1,11_fountain13,11_controller,11,11,Big-visBig,1,1,
Vaishnav48stroop,2,14,14,2,1049,1,11_controller,11_fountain13,11,11,Small-visBig,4,2,
Vaishnav48stroop,1,15,14,2,897,1,11_fountain13,11_controller,11,11,Small-visBig,4,2,
Vaishnav48stroop,1,16,14,1,931,1,11_controller,11_fountain13,11,11,Big-visBig,1,1,
Vaishnav48stroop,1,17,14,2,967,1,15_couch2,15_scotchtape,15,15,Small-visBig,4,2,
Vaishnav48stroop,1,18,14,1,1580,1,09_mushroom,09_armchair,9,9,Big-visBig,1,1,
Vaishnav48stroop,2,19,14,2,1297,1,09_mushroom,09_armchair,9,9,Small-visBig,4,2,
Vaishnav48stroop,2,20,14,1,882,1,09_armchair,09_mushroom,9,9,Big-visBig,1,1,
Vaishnav48stroop,1,21,14,1,2141,1,17_pinecone,17_hotairballoon2,17,17,Big-visBig,1,1,
Vaishnav48stroop,1,22,14,2,1364,1,10_bison,10_bowtiepasta,10,10,Small-visBig,4,2,
Vaishnav48stroop,2,23,14,2,1067,1,01_apple,01_desk,1,1,Small-visBig,4,2,
Vaishnav48stroop,2,24,14,1,1420,1,18_hotairballoon,18_ringbox03,18,18,Big-visBig,1,1,
Vaishnav48stroop,2,25,14,2,1325,1,04_camera,04_tractor11,4,4,Small-visBig,4,2,
Vaishnav48stroop,2,26,14,1,1427,1,07_grill,07_dice,7,7,Big-visBig,1,1,
Vaishnav48stroop,1,28,14,1,1569,1,20_ornament,20_wheelchair,20,20,Big-visBig,1,1,
Vaishnav48stroop,2,29,14,2,1555,1,02_seashell,02_carousel,2,2,Small-visBig,4,2,
Vaishnav48stroop,1,30,14,2,1638,1,01_desk,01_apple,1,1,Small-visBig,4,2,
Vaishnav48stroop,1,31,14,1,1295,1,01_apple,01_desk,1,1,Big-visBig,1,1,
Vaishnav48stroop,2,32,14,1,1086,1,01_desk,01_apple,1,1,Big-visBig,1,1,
Vaishnav48stroop,2,33,14,1,870,1,20_wheelchair,20_ornament,20,20,Big-visBig,1,1,
Vaishnav48stroop,1,34,14,1,1683,1,14_perfume,14_washingMachine,14,14,Big-visBig,1,1,
Vaishnav48stroop,2,35,14,2,1221,1,06_cable,06_parthenon,6,6,Small-visBig,4,2,
Vaishnav48stroop,1,36,14,2,2732,1,17_hotairballoon2,17_pinecone,17,17,Small-visBig,4,2,
Vaishnav48stroop,2,37,14,1,1628,1,08_uprightpiano,08_changepurse,8,8,Big-visBig,1,1,
Vaishnav48stroop,1,38,14,2,1304,1,20_wheelchair,20_ornament,20,20,Small-visBig,4,2,
Vaishnav48stroop,1,39,14,1,1824,1,13_rubberduck,13_piano,13,13,Big-visBig,1,1,
Vaishnav48stroop,2,40,14,2,1776,1,07_dice,07_grill,7,7,Small-visBig,4,2,
Vaishnav48stroop,2,41,14,1,1650,1,02_carousel,02_seashell,2,2,Big-visBig,1,1,
Vaishnav48stroop,2,42,14,2,1268,1,19_garlic,19_refrigerator,19,19,Small-visBig,4,2,
Vaishnav48stroop,1,43,14,1,1991,1,02_seashell,02_carousel,2,2,Big-visBig,1,1,
Vaishnav48stroop,1,44,14,2,1519,1,19_refrigerator,19_garlic,19,19,Small-visBig,4,2,
Vaishnav48stroop,1,45,14,2,1639,1,09_armchair,09_mushroom,9,9,Small-visBig,4,2,
Vaishnav48stroop,1,46,14,1,1779,1,12_pencil sharpener 5,12_bookcase,12,12,Big-visBig,1,1,
Vaishnav48stroop,2,47,14,2,1334,1,13_rubberduck,13_piano,13,13,Small-visBig,4,2,
Vaishnav48stroop,2,48,14,1,1742,1,13_piano,13_rubberduck,13,13,Big-visBig,1,1,
Vaishnav48stroop,2,49,14,2,1702,1,16_clock,16_garbagecan,16,16,Small-visBig,4,2,
Vaishnav48stroop,2,50,14,1,1540,1,03_sofachair,03_baseball 2,3,3,Big-visBig,1,1,
Vaishnav48stroop,1,51,14,2,1859,1,05_wagon,05_button,5,5,Small-visBig,4,2,
Vaishnav48stroop,1,52,14,1,1779,1,19_garlic,19_refrigerator,19,19,Big-visBig,1,1,
Vaishnav48stroop,2,53,14,1,1273,1,04_tractor11,04_camera,4,4,Big-visBig,1,1,
Vaishnav48stroop,1,54,14,2,1350,1,13_piano,13_rubberduck,13,13,Small-visBig,4,2,
Vaishnav48stroop,2,55,14,2,1411,1,08_changepurse,08_uprightpiano,8,8,Small-visBig,4,2,
Vaishnav48stroop,1,56,14,1,1277,1,06_cable,06_parthenon,6,6,Big-visBig,1,1,
Vaishnav48stroop,2,57,14,2,1013,1,20_ornament,20_wheelchair,20,20,Small-visBig,4,2,
Vaishnav48stroop,1,58,14,1,1324,1,04_camera,04_tractor11,4,4,Big-visBig,1,1,
Vaishnav48stroop,1,59,14,2,1124,1,03_sofachair,03_baseball 2,3,3,Small-visBig,4,2,
Vaishnav48stroop,2,60,14,1,1459,1,05_wagon,05_button,5,5,Big-visBig,1,1,
aarna48-stroop,1,11,15,2,1098,1,16_garbagecan,16_clock,16,16,Small-visBig,4,2,
aarna48-stroop,2,12,15,2,1118,1,20_ornament,20_wheelchair,20,20,Small-visBig,4,2,
aarna48-stroop,1,13,15,2,1526,1,05_wagon,05_button,5,5,Small-visBig,4,2,
aarna48-stroop,1,14,15,1,2540,1,07_dice,07_grill,7,7,Big-visBig,1,1,
aarna48-stroop,2,15,15,2,983,1,14_perfume,14_washingMachine,14,14,Small-visBig,4,2,
aarna48-stroop,2,16,15,1,1032,1,12_bookcase,12_pencil sharpener 5,12,12,Big-visBig,1,1,
aarna48-stroop,1,17,15,1,1131,1,18_ringbox03,18_hotairballoon,18,18,Big-visBig,1,1,
aarna48-stroop,2,18,15,1,1012,1,09_armchair,09_mushroom,9,9,Big-visBig,1,1,
aarna48-stroop,1,19,15,2,1220,1,01_desk,01_apple,1,1,Small-visBig,4,2,
aarna48-stroop,2,20,15,2,1034,1,16_clock,16_garbagecan,16,16,Small-visBig,4,2,
aarna48-stroop,2,21,15,1,1203,1,01_desk,01_apple,1,1,Big-visBig,1,1,
aarna48-stroop,1,22,15,1,1203,1,19_garlic,19_refrigerator,19,19,Big-visBig,1,1,
aarna48-stroop,2,23,15,2,1335,1,19_garlic,19_refrigerator,19,19,Small-visBig,4,2,
aarna48-stroop,1,24,15,2,1178,1,10_bison,10_bowtiepasta,10,10,Small-visBig,4,2,
aarna48-stroop,2,25,15,1,1649,1,15_couch2,15_scotchtape,15,15,Big-visBig,1,1,
aarna48-stroop,2,26,15,2,1309,1,05_button,05_wagon,5,5,Small-visBig,4,2,
aarna48-stroop,1,27,15,1,1113,1,10_bowtiepasta,10_bison,10,10,Big-visBig,1,1,
aarna48-stroop,1,28,15,2,1284,1,18_hotairballoon,18_ringbox03,18,18,Small-visBig,4,2,
aarna48-stroop,2,29,15,1,912,1,08_uprightpiano,08_changepurse,8,8,Big-visBig,1,1,
aarna48-stroop,2,30,15,2,1169,1,18_ringbox03,18_hotairballoon,18,18,Small-visBig,4,2,
aarna48-stroop,1,31,15,1,1424,1,17_pinecone,17_hotairballoon2,17,17,Big-visBig,1,1,
aarna48-stroop,1,32,15,2,1143,1,06_parthenon,06_cable,6,6,Small-visBig,4,2,
aarna48-stroop,2,33,15,1,1278,1,07_grill,07_dice,7,7,Big-visBig,1,1,
aarna48-stroop,1,34,15,2,1030,1,09_armchair,09_mushroom,9,9,Small-visBig,4,2,
aarna48-stroop,2,35,15,2,1401,1,15_scotchtape,15_couch2,15,15,Small-visBig,4,2,
aarna48-stroop,1,36,15,1,1259,1,04_camera,04_tractor11,4,4,Big-visBig,1,1,
aarna48-stroop,1,37,15,1,1728,1,08_changepurse,08_uprightpiano,8,8,Big-visBig,1,1,
aarna48-stroop,1,38,15,2,1324,1,03_sofachair,03_baseball 2,3,3,Small-visBig,4,2,
aarna48-stroop,2,39,15,1,995,1,17_hotairballoon2,17_pinecone,17,17,Big-visBig,1,1,
aarna48-stroop,2,40,15,2,1608,1,04_camera,04_tractor11,4,4,Small-visBig,4,2,
aarna48-stroop,2,41,15,2,1838,1,13_rubberduck,13_piano,13,13,Small-visBig,4,2,
aarna48-stroop,1,42,15,1,1581,1,11_controller,11_fountain13,11,11,Big-visBig,1,1,
aarna48-stroop,1,43,15,2,1234,1,13_piano,13_rubberduck,13,13,Small-visBig,4,2,
aarna48-stroop,2,44,15,1,1540,1,05_wagon,05_button,5,5,Big-visBig,1,1,
aarna48-stroop,1,45,15,1,1394,1,06_cable,06_parthenon,6,6,Big-visBig,1,1,
aarna48-stroop,1,46,15,2,1300,1,14_washingMachine,14_perfume,14,14,Small-visBig,4,2,
aarna48-stroop,2,47,15,2,1283,1,12_pencil sharpener 5,12_bookcase,12,12,Small-visBig,4,2,
aarna48-stroop,2,48,15,1,1078,1,10_bison,10_bowtiepasta,10,10,Big-visBig,1,1,
aarna48-stroop,1,50,15,2,1152,1,19_refrigerator,19_garlic,19,19,Small-visBig,4,2,
aarna48-stroop,2,51,15,1,1002,1,16_garbagecan,16_clock,16,16,Big-visBig,1,1,
aarna48-stroop,1,52,15,1,1350,1,12_pencil sharpener 5,12_bookcase,12,12,Big-visBig,1,1,
aarna48-stroop,2,53,15,2,987,1,02_seashell,02_carousel,2,2,Small-visBig,4,2,
aarna48-stroop,2,54,15,1,1227,1,06_parthenon,06_cable,6,6,Big-visBig,1,1,
aarna48-stroop,1,55,15,2,1329,1,07_grill,07_dice,7,7,Small-visBig,4,2,
aarna48-stroop,1,56,15,1,1019,1,16_clock,16_garbagecan,16,16,Big-visBig,1,1,
aarna48-stroop,2,57,15,1,1117,1,03_sofachair,03_baseball 2,3,3,Big-visBig,1,1,
adral-48-ssreplicatr,2,11,16,1,1199,1,03_sofachair,03_baseball 2,3,3,Big-visBig,1,1,
adral-48-ssreplicatr,1,12,16,1,1181,1,16_clock,16_garbagecan,16,16,Big-visBig,1,1,
adral-48-ssreplicatr,2,13,16,2,1303,1,01_apple,01_desk,1,1,Small-visBig,4,2,
adral-48-ssreplicatr,1,14,16,1,1129,1,17_pinecone,17_hotairballoon2,17,17,Big-visBig,1,1,
adral-48-ssreplicatr,2,15,16,1,1626,1,16_garbagecan,16_clock,16,16,Big-visBig,1,1,
adral-48-ssreplicatr,1,16,16,2,1063,1,08_uprightpiano,08_changepurse,8,8,Small-visBig,4,2,
adral-48-ssreplicatr,2,17,16,2,2231,1,15_scotchtape,15_couch2,15,15,Small-visBig,4,2,
adral-48-ssreplicatr,2,18,16,1,2183,1,10_bison,10_bowtiepasta,10,10,Big-visBig,1,1,
adral-48-ssreplicatr,1,19,16,1,1700,1,15_scotchtape,15_couch2,15,15,Big-visBig,1,1,
adral-48-ssreplicatr,1,20,16,2,1989,1,02_carousel,02_seashell,2,2,Small-visBig,4,2,
adral-48-ssreplicatr,2,21,16,2,1421,1,02_seashell,02_carousel,2,2,Small-visBig,4,2,
adral-48-ssreplicatr,1,22,16,1,1475,1,04_camera,04_tractor11,4,4,Big-visBig,1,1,
adral-48-ssreplicatr,1,23,16,2,1840,1,01_desk,01_apple,1,1,Small-visBig,4,2,
adral-48-ssreplicatr,2,24,16,1,1517,1,04_tractor11,04_camera,4,4,Big-visBig,1,1,
adral-48-ssreplicatr,2,25,16,1,1528,1,07_grill,07_dice,7,7,Big-visBig,1,1,
adral-48-ssreplicatr,1,26,16,2,3646,1,11_fountain13,11_controller,11,11,Small-visBig,4,2,
adral-48-ssreplicatr,2,27,16,2,1987,1,13_rubberduck,13_piano,13,13,Small-visBig,4,2,
adral-48-ssreplicatr,1,28,16,1,1030,1,09_mushroom,09_armchair,9,9,Big-visBig,1,1,
adral-48-ssreplicatr,2,29,16,1,2863,1,13_piano,13_rubberduck,13,13,Big-visBig,1,1,
adral-48-ssreplicatr,2,30,16,2,1586,1,08_changepurse,08_uprightpiano,8,8,Small-visBig,4,2,
adral-48-ssreplicatr,1,31,16,2,2631,1,06_parthenon,06_cable,6,6,Small-visBig,4,2,
adral-48-ssreplicatr,1,32,16,1,1646,1,01_apple,01_desk,1,1,Big-visBig,1,1,
adral-48-ssreplicatr,1,33,16,1,2402,1,20_ornament,20_wheelchair,20,20,Big-visBig,1,1,
adral-48-ssreplicatr,2,34,16,1,2589,1,12_bookcase,12_pencil sharpener 5,12,12,Big-visBig,1,1,
adral-48-ssreplicatr,1,35,16,2,2532,1,17_hotairballoon2,17_pinecone,17,17,Small-visBig,4,2,
adral-48-ssreplicatr,2,36,16,2,1702,1,17_pinecone,17_hotairballoon2,17,17,Small-visBig,4,2,
adral-48-ssreplicatr,2,37,16,2,1887,1,19_garlic,19_refrigerator,19,19,Small-visBig,4,2,
adral-48-ssreplicatr,1,38,16,2,2214,1,03_sofachair,03_baseball 2,3,3,Small-visBig,4,2,
adral-48-ssreplicatr,2,39,16,1,3146,1,06_parthenon,06_cable,6,6,Big-visBig,1,1,
adral-48-ssreplicatr,1,40,16,1,2249,1,12_pencil sharpener 5,12_bookcase,12,12,Big-visBig,1,1,
adral-48-ssreplicatr,1,41,16,2,2286,1,07_grill,07_dice,7,7,Small-visBig,4,2,
adral-48-ssreplicatr,2,42,16,1,1636,1,18_hotairballoon,18_ringbox03,18,18,Big-visBig,1,1,
adral-48-ssreplicatr,2,43,16,2,2732,1,05_button,05_wagon,5,5,Small-visBig,4,2,
adral-48-ssreplicatr,1,44,16,1,2741,1,19_garlic,19_refrigerator,19,19,Big-visBig,1,1,
adral-48-ssreplicatr,1,45,16,1,2214,1,05_button,05_wagon,5,5,Big-visBig,1,1,
adral-48-ssreplicatr,1,46,16,2,1723,1,05_wagon,05_button,5,5,Small-visBig,4,2,
adral-48-ssreplicatr,2,47,16,1,2081,1,05_wagon,05_button,5,5,Big-visBig,1,1,
adral-48-ssreplicatr,2,48,16,2,1536,1,18_ringbox03,18_hotairballoon,18,18,Small-visBig,4,2,
adral-48-ssreplicatr,2,50,16,1,1534,1,20_wheelchair,20_ornament,20,20,Big-visBig,1,1,
adral-48-ssreplicatr,1,51,16,2,1610,1,12_bookcase,12_pencil sharpener 5,12,12,Small-visBig,4,2,
adral-48-ssreplicatr,2,52,16,2,1619,1,20_ornament,20_wheelchair,20,20,Small-visBig,4,2,
adral-48-ssreplicatr,2,53,16,2,1551,1,14_perfume,14_washingMachine,14,14,Small-visBig,4,2,
adral-48-ssreplicatr,1,54,16,2,1275,1,09_armchair,09_mushroom,9,9,Small-visBig,4,2,
adral-48-ssreplicatr,2,55,16,1,1319,1,19_refrigerator,19_garlic,19,19,Big-visBig,1,1,
adral-48-ssreplicatr,1,56,16,1,1455,1,11_controller,11_fountain13,11,11,Big-visBig,1,1,
adral-48-ssreplicatr,2,57,16,2,1664,1,11_controller,11_fountain13,11,11,Small-visBig,4,2,
ali-48-ssrplicat,1,11,17,2,1599,1,10_bison,10_bowtiepasta,10,10,Small-visBig,4,2,
ali-48-ssrplicat,2,12,17,2,1420,1,18_ringbox03,18_hotairballoon,18,18,Small-visBig,4,2,
ali-48-ssrplicat,1,13,17,2,1100,1,15_couch2,15_scotchtape,15,15,Small-visBig,4,2,
ali-48-ssrplicat,1,14,17,1,833,1,14_perfume,14_washingMachine,14,14,Big-visBig,1,1,
ali-48-ssrplicat,2,15,17,2,1270,1,02_seashell,02_carousel,2,2,Small-visBig,4,2,
ali-48-ssrplicat,2,16,17,1,1215,1,12_bookcase,12_pencil sharpener 5,12,12,Big-visBig,1,1,
ali-48-ssrplicat,2,17,17,1,1002,1,06_parthenon,06_cable,6,6,Big-visBig,1,1,
ali-48-ssrplicat,1,18,17,2,1179,1,20_wheelchair,20_ornament,20,20,Small-visBig,4,2,
ali-48-ssrplicat,1,19,17,1,1225,1,20_ornament,20_wheelchair,20,20,Big-visBig,1,1,
ali-48-ssrplicat,2,20,17,2,1311,1,20_ornament,20_wheelchair,20,20,Small-visBig,4,2,
ali-48-ssrplicat,1,21,17,2,1141,1,03_sofachair,03_baseball 2,3,3,Small-visBig,4,2,
ali-48-ssrplicat,2,22,17,1,1237,1,18_hotairballoon,18_ringbox03,18,18,Big-visBig,1,1,
ali-48-ssrplicat,1,23,17,1,1028,1,06_cable,06_parthenon,6,6,Big-visBig,1,1,
ali-48-ssrplicat,2,24,17,2,1378,1,07_dice,07_grill,7,7,Small-visBig,4,2,
ali-48-ssrplicat,2,25,17,1,976,1,05_wagon,05_button,5,5,Big-visBig,1,1,
ali-48-ssrplicat,1,26,17,2,1234,1,13_piano,13_rubberduck,13,13,Small-visBig,4,2,
ali-48-ssrplicat,2,27,17,2,1166,1,14_perfume,14_washingMachine,14,14,Small-visBig,4,2,
ali-48-ssrplicat,1,28,17,1,3076,1,04_camera,04_tractor11,4,4,Big-visBig,1,1,
ali-48-ssrplicat,2,29,17,1,781,1,13_piano,13_rubberduck,13,13,Big-visBig,1,1,
ali-48-ssrplicat,2,30,17,2,1326,1,04_camera,04_tractor11,4,4,Small-visBig,4,2,
ali-48-ssrplicat,1,31,17,2,1229,1,07_grill,07_dice,7,7,Small-visBig,4,2,
ali-48-ssrplicat,1,32,17,1,1599,1,11_controller,11_fountain13,11,11,Big-visBig,1,1,
ali-48-ssrplicat,1,33,17,2,1247,1,11_fountain13,11_controller,11,11,Small-visBig,4,2,
ali-48-ssrplicat,2,34,17,1,832,1,03_sofachair,03_baseball 2,3,3,Big-visBig,1,1,
ali-48-ssrplicat,2,35,17,2,1296,1,08_changepurse,08_uprightpiano,8,8,Small-visBig,4,2,
ali-48-ssrplicat,1,36,17,1,2128,1,07_dice,07_grill,7,7,Big-visBig,1,1,
ali-48-ssrplicat,2,37,17,1,1252,1,15_couch2,15_scotchtape,15,15,Big-visBig,1,1,
ali-48-ssrplicat,2,38,17,2,1498,1,10_bowtiepasta,10_bison,10,10,Small-visBig,4,2,
ali-48-ssrplicat,1,39,17,2,1343,1,04_tractor11,04_camera,4,4,Small-visBig,4,2,
ali-48-ssrplicat,1,40,17,1,1401,1,17_pinecone,17_hotairballoon2,17,17,Big-visBig,1,1,
ali-48-ssrplicat,2,41,17,2,1461,1,06_cable,06_parthenon,6,6,Small-visBig,4,2,
ali-48-ssrplicat,2,42,17,1,1292,1,04_tractor11,04_camera,4,4,Big-visBig,1,1,
ali-48-ssrplicat,1,43,17,2,2027,1,18_hotairballoon,18_ringbox03,18,18,Small-visBig,4,2,
ali-48-ssrplicat,1,44,17,1,2287,1,01_apple,01_desk,1,1,Big-visBig,1,1,
ali-48-ssrplicat,2,45,17,1,1318,1,17_hotairballoon2,17_pinecone,17,17,Big-visBig,1,1,
ali-48-ssrplicat,2,46,17,2,2082,1,12_pencil sharpener 5,12_bookcase,12,12,Small-visBig,4,2,
ali-48-ssrplicat,1,47,17,1,1692,1,13_rubberduck,13_piano,13,13,Big-visBig,1,1,
ali-48-ssrplicat,1,48,17,2,1283,1,19_refrigerator,19_garlic,19,19,Small-visBig,4,2,
ali-48-ssrplicat,2,49,17,1,1238,1,02_carousel,02_seashell,2,2,Big-visBig,1,1,
ali-48-ssrplicat,1,50,17,1,1221,1,02_seashell,02_carousel,2,2,Big-visBig,1,1,
ali-48-ssrplicat,1,51,17,2,1181,1,05_wagon,05_button,5,5,Small-visBig,4,2,
ali-48-ssrplicat,2,52,17,2,1230,1,09_mushroom,09_armchair,9,9,Small-visBig,4,2,
ali-48-ssrplicat,1,53,17,2,1169,1,17_hotairballoon2,17_pinecone,17,17,Small-visBig,4,2,
ali-48-ssrplicat,1,54,17,1,1432,1,10_bowtiepasta,10_bison,10,10,Big-visBig,1,1,
ali-48-ssrplicat,2,55,17,2,1118,1,17_pinecone,17_hotairballoon2,17,17,Small-visBig,4,2,
ali-48-ssrplicat,2,56,17,1,1017,1,14_washingMachine,14_perfume,14,14,Big-visBig,1,1,
ali-48-ssrplicat,2,57,17,2,1050,1,13_rubberduck,13_piano,13,13,Small-visBig,4,2,
ali-48-ssrplicat,1,58,17,2,1786,1,01_desk,01_apple,1,1,Small-visBig,4,2,
ali-48-ssrplicat,1,59,17,1,983,1,18_ringbox03,18_hotairballoon,18,18,Big-visBig,1,1,
ali-48-ssrplicat,2,60,17,1,1111,1,07_grill,07_dice,7,7,Big-visBig,1,1,
ananya,2,11,18,1,1746,1,04_tractor11,04_camera,4,4,Big-visBig,1,1,
ananya,1,12,18,2,1953,1,05_wagon,05_button,5,5,Small-visBig,4,2,
ananya,2,14,18,2,1400,1,16_clock,16_garbagecan,16,16,Small-visBig,4,2,
ananya,1,16,18,1,711,1,20_ornament,20_wheelchair,20,20,Big-visBig,1,1,
ananya,1,17,18,2,1101,1,04_tractor11,04_camera,4,4,Small-visBig,4,2,
ananya,2,18,18,1,2024,1,15_couch2,15_scotchtape,15,15,Big-visBig,1,1,
ananya,2,19,18,2,1545,1,07_dice,07_grill,7,7,Small-visBig,4,2,
ananya,1,20,18,1,1633,1,16_clock,16_garbagecan,16,16,Big-visBig,1,1,
ananya,1,22,18,2,1972,1,11_fountain13,11_controller,11,11,Small-visBig,4,2,
ananya,2,23,18,2,1333,1,03_baseball 2,03_sofachair,3,3,Small-visBig,4,2,
ananya,1,24,18,1,2412,1,18_ringbox03,18_hotairballoon,18,18,Big-visBig,1,1,
ananya,1,25,18,1,948,1,11_controller,11_fountain13,11,11,Big-visBig,1,1,
ananya,2,26,18,2,1759,1,08_changepurse,08_uprightpiano,8,8,Small-visBig,4,2,
ananya,2,27,18,1,1072,1,08_uprightpiano,08_changepurse,8,8,Big-visBig,1,1,
ananya,1,28,18,2,1834,1,13_piano,13_rubberduck,13,13,Small-visBig,4,2,
ananya,1,29,18,1,1075,1,10_bowtiepasta,10_bison,10,10,Big-visBig,1,1,
ananya,2,30,18,1,1188,1,07_grill,07_dice,7,7,Big-visBig,1,1,
ananya,1,31,18,2,903,1,18_hotairballoon,18_ringbox03,18,18,Small-visBig,4,2,
ananya,1,33,18,1,1881,1,13_rubberduck,13_piano,13,13,Big-visBig,1,1,
ananya,1,34,18,2,1345,1,16_garbagecan,16_clock,16,16,Small-visBig,4,2,
ananya,2,35,18,1,917,1,14_washingMachine,14_perfume,14,14,Big-visBig,1,1,
ananya,2,36,18,2,1611,1,14_perfume,14_washingMachine,14,14,Small-visBig,4,2,
ananya,2,37,18,1,1021,1,10_bison,10_bowtiepasta,10,10,Big-visBig,1,1,
ananya,1,38,18,1,838,1,01_apple,01_desk,1,1,Big-visBig,1,1,
ananya,2,39,18,2,994,1,15_scotchtape,15_couch2,15,15,Small-visBig,4,2,
ananya,1,40,18,2,1669,1,14_washingMachine,14_perfume,14,14,Small-visBig,4,2,
ananya,2,42,18,2,1383,1,02_seashell,02_carousel,2,2,Small-visBig,4,2,
ananya,2,44,18,1,858,1,12_bookcase,12_pencil sharpener 5,12,12,Big-visBig,1,1,
audrey-48-ssreplicate,1,11,19,2,1217,1,19_refrigerator,19_garlic,19,19,Small-visBig,4,2,
audrey-48-ssreplicate,2,12,19,2,1336,1,19_garlic,19_refrigerator,19,19,Small-visBig,4,2,
audrey-48-ssreplicate,1,13,19,1,2056,1,20_ornament,20_wheelchair,20,20,Big-visBig,1,1,
audrey-48-ssreplicate,1,14,19,2,1245,1,07_grill,07_dice,7,7,Small-visBig,4,2,
audrey-48-ssreplicate,2,15,19,2,1287,1,02_seashell,02_carousel,2,2,Small-visBig,4,2,
audrey-48-ssreplicate,2,16,19,1,1219,1,17_hotairballoon2,17_pinecone,17,17,Big-visBig,1,1,
audrey-48-ssreplicate,1,17,19,2,1384,1,08_uprightpiano,08_changepurse,8,8,Small-visBig,4,2,
audrey-48-ssreplicate,1,18,19,1,1686,1,08_changepurse,08_uprightpiano,8,8,Big-visBig,1,1,
audrey-48-ssreplicate,2,19,19,1,1176,1,07_grill,07_dice,7,7,Big-visBig,1,1,
audrey-48-ssreplicate,2,20,19,2,1385,1,20_ornament,20_wheelchair,20,20,Small-visBig,4,2,
audrey-48-ssreplicate,2,21,19,1,1394,1,06_parthenon,06_cable,6,6,Big-visBig,1,1,
audrey-48-ssreplicate,1,22,19,2,1478,1,18_hotairballoon,18_ringbox03,18,18,Small-visBig,4,2,
audrey-48-ssreplicate,1,23,19,1,2625,1,05_button,05_wagon,5,5,Big-visBig,1,1,
audrey-48-ssreplicate,2,24,19,2,1739,1,18_ringbox03,18_hotairballoon,18,18,Small-visBig,4,2,
audrey-48-ssreplicate,1,25,19,1,1771,1,15_scotchtape,15_couch2,15,15,Big-visBig,1,1,
audrey-48-ssreplicate,2,26,19,1,2457,1,01_desk,01_apple,1,1,Big-visBig,1,1,
audrey-48-ssreplicate,2,27,19,2,1696,1,09_mushroom,09_armchair,9,9,Small-visBig,4,2,
audrey-48-ssreplicate,1,28,19,2,1272,1,12_bookcase,12_pencil sharpener 5,12,12,Small-visBig,4,2,
audrey-48-ssreplicate,1,29,19,2,1803,1,14_washingMachine,14_perfume,14,14,Small-visBig,4,2,
audrey-48-ssreplicate,1,30,19,1,1656,1,11_controller,11_fountain13,11,11,Big-visBig,1,1,
audrey-48-ssreplicate,2,31,19,1,1059,1,05_wagon,05_button,5,5,Big-visBig,1,1,
audrey-48-ssreplicate,2,32,19,2,1168,1,04_camera,04_tractor11,4,4,Small-visBig,4,2,
audrey-48-ssreplicate,2,33,19,2,1348,1,11_controller,11_fountain13,11,11,Small-visBig,4,2,
audrey-48-ssreplicate,2,34,19,1,1216,1,13_piano,13_rubberduck,13,13,Big-visBig,1,1,
audrey-48-ssreplicate,1,35,19,2,1274,1,03_sofachair,03_baseball 2,3,3,Small-visBig,4,2,
audrey-48-ssreplicate,1,36,19,1,1413,1,04_camera,04_tractor11,4,4,Big-visBig,1,1,
audrey-48-ssreplicate,1,37,19,1,1903,1,14_perfume,14_washingMachine,14,14,Big-visBig,1,1,
audrey-48-ssreplicate,2,38,19,1,817,1,14_washingMachine,14_perfume,14,14,Big-visBig,1,1,
audrey-48-ssreplicate,1,39,19,2,1904,1,05_wagon,05_button,5,5,Small-visBig,4,2,
audrey-48-ssreplicate,2,40,19,2,2021,1,05_button,05_wagon,5,5,Small-visBig,4,2,
audrey-48-ssreplicate,1,41,19,2,1338,1,02_carousel,02_seashell,2,2,Small-visBig,4,2,
audrey-48-ssreplicate,1,42,19,1,1239,1,01_apple,01_desk,1,1,Big-visBig,1,1,
audrey-48-ssreplicate,2,43,19,1,1102,1,16_garbagecan,16_clock,16,16,Big-visBig,1,1,
audrey-48-ssreplicate,2,44,19,2,1089,1,12_pencil sharpener 5,12_bookcase,12,12,Small-visBig,4,2,
audrey-48-ssreplicate,2,45,19,1,1488,1,02_carousel,02_seashell,2,2,Big-visBig,1,1,
audrey-48-ssreplicate,2,46,19,2,1023,1,03_baseball 2,03_sofachair,3,3,Small-visBig,4,2,
audrey-48-ssreplicate,1,47,19,2,1631,1,01_desk,01_apple,1,1,Small-visBig,4,2,
audrey-48-ssreplicate,1,48,19,1,1530,1,02_seashell,02_carousel,2,2,Big-visBig,1,1,
audrey-48-ssreplicate,1,49,19,2,1025,1,04_tractor11,04_camera,4,4,Small-visBig,4,2,
audrey-48-ssreplicate,2,50,19,2,1361,1,07_dice,07_grill,7,7,Small-visBig,4,2,
audrey-48-ssreplicate,1,51,19,1,1330,1,10_bowtiepasta,10_bison,10,10,Big-visBig,1,1,
audrey-48-ssreplicate,2,52,19,1,1482,1,11_fountain13,11_controller,11,11,Big-visBig,1,1,
audrey-48-ssreplicate,1,53,19,2,1169,1,15_couch2,15_scotchtape,15,15,Small-visBig,4,2,
audrey-48-ssreplicate,1,54,19,1,1782,1,03_baseball 2,03_sofachair,3,3,Big-visBig,1,1,
audrey-48-ssreplicate,2,55,19,1,1432,1,12_bookcase,12_pencil sharpener 5,12,12,Big-visBig,1,1,
audrey-48-ssreplicate,2,56,19,2,1584,1,15_scotchtape,15_couch2,15,15,Small-visBig,4,2,
audrey-48-ssreplicate,1,57,19,2,1759,1,06_parthenon,06_cable,6,6,Small-visBig,4,2,
benjamin-48-ssreplicate,2,11,20,2,1514,1,10_bowtiepasta,10_bison,10,10,Small-visBig,4,2,
benjamin-48-ssreplicate,2,12,20,1,1275,1,05_wagon,05_button,5,5,Big-visBig,1,1,
benjamin-48-ssreplicate,1,13,20,1,2428,1,14_perfume,14_washingMachine,14,14,Big-visBig,1,1,
benjamin-48-ssreplicate,2,14,20,1,1372,1,02_carousel,02_seashell,2,2,Big-visBig,1,1,
benjamin-48-ssreplicate,1,15,20,2,1247,1,09_armchair,09_mushroom,9,9,Small-visBig,4,2,
benjamin-48-ssreplicate,2,16,20,2,1333,1,16_clock,16_garbagecan,16,16,Small-visBig,4,2,
benjamin-48-ssreplicate,1,17,20,1,1309,1,04_camera,04_tractor11,4,4,Big-visBig,1,1,
benjamin-48-ssreplicate,2,18,20,2,1346,1,13_rubberduck,13_piano,13,13,Small-visBig,4,2,
benjamin-48-ssreplicate,2,19,20,1,2042,1,19_refrigerator,19_garlic,19,19,Big-visBig,1,1,
benjamin-48-ssreplicate,1,20,20,2,2302,1,04_tractor11,04_camera,4,4,Small-visBig,4,2,
benjamin-48-ssreplicate,1,21,20,2,1647,1,08_uprightpiano,08_changepurse,8,8,Small-visBig,4,2,
benjamin-48-ssreplicate,1,22,20,1,1617,1,16_clock,16_garbagecan,16,16,Big-visBig,1,1,
benjamin-48-ssreplicate,2,23,20,1,1362,1,07_grill,07_dice,7,7,Big-visBig,1,1,
benjamin-48-ssreplicate,2,24,20,2,1668,1,19_garlic,19_refrigerator,19,19,Small-visBig,4,2,
benjamin-48-ssreplicate,2,25,20,2,2210,1,18_ringbox03,18_hotairballoon,18,18,Small-visBig,4,2,
benjamin-48-ssreplicate,1,26,20,2,1921,1,12_bookcase,12_pencil sharpener 5,12,12,Small-visBig,4,2,
benjamin-48-ssreplicate,1,27,20,1,1222,1,20_ornament,20_wheelchair,20,20,Big-visBig,1,1,
benjamin-48-ssreplicate,2,28,20,1,1817,1,06_parthenon,06_cable,6,6,Big-visBig,1,1,
benjamin-48-ssreplicate,1,29,20,1,1470,1,02_seashell,02_carousel,2,2,Big-visBig,1,1,
benjamin-48-ssreplicate,1,30,20,2,1033,1,15_couch2,15_scotchtape,15,15,Small-visBig,4,2,
benjamin-48-ssreplicate,2,31,20,2,1551,1,15_scotchtape,15_couch2,15,15,Small-visBig,4,2,
benjamin-48-ssreplicate,2,32,20,1,1370,1,01_desk,01_apple,1,1,Big-visBig,1,1,
benjamin-48-ssreplicate,1,33,20,2,1035,1,17_hotairballoon2,17_pinecone,17,17,Small-visBig,4,2,
benjamin-48-ssreplicate,2,34,20,1,1255,1,09_armchair,09_mushroom,9,9,Big-visBig,1,1,
benjamin-48-ssreplicate,1,35,20,1,1253,1,01_apple,01_desk,1,1,Big-visBig,1,1,
benjamin-48-ssreplicate,2,36,20,2,1441,1,05_button,05_wagon,5,5,Small-visBig,4,2,
benjamin-48-ssreplicate,1,38,20,1,2022,1,05_button,05_wagon,5,5,Big-visBig,1,1,
benjamin-48-ssreplicate,1,39,20,2,1052,1,19_refrigerator,19_garlic,19,19,Small-visBig,4,2,
benjamin-48-ssreplicate,2,40,20,1,1396,1,08_uprightpiano,08_changepurse,8,8,Big-visBig,1,1,
benjamin-48-ssreplicate,2,41,20,2,1485,1,04_camera,04_tractor11,4,4,Small-visBig,4,2,
benjamin-48-ssreplicate,2,42,20,1,1132,1,13_piano,13_rubberduck,13,13,Big-visBig,1,1,
benjamin-48-ssreplicate,1,43,20,1,1180,1,08_changepurse,08_uprightpiano,8,8,Big-visBig,1,1,
cecilia-48-stroop,1,11,21,1,1245,1,08_changepurse,08_uprightpiano,8,8,Big-visBig,1,1,
cecilia-48-stroop,2,12,21,2,2267,1,05_button,05_wagon,5,5,Small-visBig,4,2,
cecilia-48-stroop,1,13,21,2,2277,1,18_hotairballoon,18_ringbox03,18,18,Small-visBig,4,2,
cecilia-48-stroop,2,14,21,1,1439,1,02_carousel,02_seashell,2,2,Big-visBig,1,1,
cecilia-48-stroop,2,15,21,2,1630,1,14_perfume,14_washingMachine,14,14,Small-visBig,4,2,
cecilia-48-stroop,1,16,21,1,1682,1,05_button,05_wagon,5,5,Big-visBig,1,1,
cecilia-48-stroop,1,17,21,2,1710,1,07_grill,07_dice,7,7,Small-visBig,4,2,
cecilia-48-stroop,2,18,21,2,1671,1,02_seashell,02_carousel,2,2,Small-visBig,4,2,
cecilia-48-stroop,2,19,21,1,1827,1,15_couch2,15_scotchtape,15,15,Big-visBig,1,1,
cecilia-48-stroop,1,20,21,1,1585,1,16_clock,16_garbagecan,16,16,Big-visBig,1,1,
cecilia-48-stroop,2,21,21,2,1477,1,06_cable,06_parthenon,6,6,Small-visBig,4,2,
cecilia-48-stroop,2,22,21,1,1695,1,19_refrigerator,19_garlic,19,19,Big-visBig,1,1,
cecilia-48-stroop,1,23,21,2,1544,1,15_couch2,15_scotchtape,15,15,Small-visBig,4,2,
cecilia-48-stroop,1,24,21,1,1170,1,18_ringbox03,18_hotairballoon,18,18,Big-visBig,1,1,
cecilia-48-stroop,1,25,21,1,1433,1,12_pencil sharpener 5,12_bookcase,12,12,Big-visBig,1,1,
cecilia-48-stroop,1,26,21,2,1347,1,01_desk,01_apple,1,1,Small-visBig,4,2,
cecilia-48-stroop,2,27,21,1,1440,1,06_parthenon,06_cable,6,6,Big-visBig,1,1,
cecilia-48-stroop,1,29,21,2,1443,1,14_washingMachine,14_perfume,14,14,Small-visBig,4,2,
cecilia-48-stroop,1,30,21,1,1721,1,20_ornament,20_wheelchair,20,20,Big-visBig,1,1,
cecilia-48-stroop,2,31,21,1,1684,1,03_sofachair,03_baseball 2,3,3,Big-visBig,1,1,
cecilia-48-stroop,2,32,21,2,1581,1,10_bowtiepasta,10_bison,10,10,Small-visBig,4,2,
cecilia-48-stroop,1,33,21,2,1410,1,05_wagon,05_button,5,5,Small-visBig,4,2,
cecilia-48-stroop,2,34,21,2,1525,1,20_ornament,20_wheelchair,20,20,Small-visBig,4,2,
cecilia-48-stroop,1,35,21,1,951,1,17_pinecone,17_hotairballoon2,17,17,Big-visBig,1,1,
cecilia-48-stroop,2,36,21,1,1182,1,16_garbagecan,16_clock,16,16,Big-visBig,1,1,
cecilia-48-stroop,1,37,21,1,1398,1,10_bowtiepasta,10_bison,10,10,Big-visBig,1,1,
cecilia-48-stroop,1,38,21,2,1718,1,19_refrigerator,19_garlic,19,19,Small-visBig,4,2,
cecilia-48-stroop,2,39,21,1,1396,1,14_washingMachine,14_perfume,14,14,Big-visBig,1,1,
cecilia-48-stroop,2,40,21,2,1598,1,11_controller,11_fountain13,11,11,Small-visBig,4,2,
cecilia-48-stroop,2,41,21,1,2163,1,13_piano,13_rubberduck,13,13,Big-visBig,1,1,
cecilia-48-stroop,2,42,21,2,2416,1,15_scotchtape,15_couch2,15,15,Small-visBig,4,2,
cecilia-48-stroop,1,43,21,2,1685,1,04_tractor11,04_camera,4,4,Small-visBig,4,2,
cecilia-48-stroop,1,44,21,1,1489,1,02_seashell,02_carousel,2,2,Big-visBig,1,1,
cecilia-48-stroop,2,45,21,2,1314,1,01_apple,01_desk,1,1,Small-visBig,4,2,
cecilia-48-stroop,1,46,21,1,1565,1,19_garlic,19_refrigerator,19,19,Big-visBig,1,1,
cecilia-48-stroop,1,47,21,2,1518,1,13_piano,13_rubberduck,13,13,Small-visBig,4,2,
cecilia-48-stroop,2,48,21,1,1253,1,20_wheelchair,20_ornament,20,20,Big-visBig,1,1,
cecilia-48-stroop,2,49,21,1,1557,1,10_bison,10_bowtiepasta,10,10,Big-visBig,1,1,
cecilia-48-stroop,1,50,21,1,2009,1,09_mushroom,09_armchair,9,9,Big-visBig,1,1,
cecilia-48-stroop,1,51,21,2,1362,1,08_uprightpiano,08_changepurse,8,8,Small-visBig,4,2,
cecilia-48-stroop,2,52,21,2,1444,1,07_dice,07_grill,7,7,Small-visBig,4,2,
cecilia-48-stroop,2,53,21,1,1934,1,11_fountain13,11_controller,11,11,Big-visBig,1,1,
cecilia-48-stroop,2,54,21,2,1410,1,04_camera,04_tractor11,4,4,Small-visBig,4,2,
cecilia-48-stroop,1,55,21,2,1943,1,06_parthenon,06_cable,6,6,Small-visBig,4,2,
cecilia-48-stroop,1,56,21,1,1618,1,15_scotchtape,15_couch2,15,15,Big-visBig,1,1,
cecilia-48-stroop,2,57,21,1,1404,1,04_tractor11,04_camera,4,4,Big-visBig,1,1,
cecilia-48-stroop,2,58,21,2,1480,1,09_mushroom,09_armchair,9,9,Small-visBig,4,2,
conner-48-ssreplicate,2,11,22,1,1485,1,17_hotairballoon2,17_pinecone,17,17,Big-visBig,1,1,
conner-48-ssreplicate,1,12,22,2,1565,1,10_bison,10_bowtiepasta,10,10,Small-visBig,4,2,
conner-48-ssreplicate,2,13,22,1,1280,1,10_bison,10_bowtiepasta,10,10,Big-visBig,1,1,
conner-48-ssreplicate,2,14,22,2,1733,1,18_ringbox03,18_hotairballoon,18,18,Small-visBig,4,2,
conner-48-ssreplicate,1,15,22,1,1174,1,03_baseball 2,03_sofachair,3,3,Big-visBig,1,1,
conner-48-ssreplicate,1,16,22,2,978,1,05_wagon,05_button,5,5,Small-visBig,4,2,
conner-48-ssreplicate,1,17,22,1,1011,1,08_changepurse,08_uprightpiano,8,8,Big-visBig,1,1,
conner-48-ssreplicate,2,18,22,2,1139,1,02_seashell,02_carousel,2,2,Small-visBig,4,2,
conner-48-ssreplicate,1,19,22,2,1048,1,16_garbagecan,16_clock,16,16,Small-visBig,4,2,
conner-48-ssreplicate,2,20,22,1,934,1,20_wheelchair,20_ornament,20,20,Big-visBig,1,1,
conner-48-ssreplicate,2,21,22,2,1173,1,03_baseball 2,03_sofachair,3,3,Small-visBig,4,2,
conner-48-ssreplicate,1,22,22,2,933,1,11_fountain13,11_controller,11,11,Small-visBig,4,2,
conner-48-ssreplicate,1,23,22,1,878,1,16_clock,16_garbagecan,16,16,Big-visBig,1,1,
conner-48-ssreplicate,2,24,22,1,1204,1,19_refrigerator,19_garlic,19,19,Big-visBig,1,1,
conner-48-ssreplicate,2,25,22,2,1096,1,08_changepurse,08_uprightpiano,8,8,Small-visBig,4,2,
conner-48-ssreplicate,1,26,22,2,1078,1,14_washingMachine,14_perfume,14,14,Small-visBig,4,2,
conner-48-ssreplicate,2,27,22,1,994,1,06_parthenon,06_cable,6,6,Big-visBig,1,1,
conner-48-ssreplicate,1,28,22,1,1099,1,12_pencil sharpener 5,12_bookcase,12,12,Big-visBig,1,1,
conner-48-ssreplicate,2,29,22,2,1888,1,05_button,05_wagon,5,5,Small-visBig,4,2,
conner-48-ssreplicate,2,30,22,1,1176,1,11_fountain13,11_controller,11,11,Big-visBig,1,1,
conner-48-ssreplicate,1,31,22,1,1151,1,15_scotchtape,15_couch2,15,15,Big-visBig,1,1,
conner-48-ssreplicate,1,32,22,2,1000,1,15_couch2,15_scotchtape,15,15,Small-visBig,4,2,
conner-48-ssreplicate,2,33,22,1,1177,1,08_uprightpiano,08_changepurse,8,8,Big-visBig,1,1,
conner-48-ssreplicate,2,34,22,2,1045,1,06_cable,06_parthenon,6,6,Small-visBig,4,2,
conner-48-ssreplicate,1,35,22,1,1166,1,13_rubberduck,13_piano,13,13,Big-visBig,1,1,
conner-48-ssreplicate,1,36,22,2,929,1,07_grill,07_dice,7,7,Small-visBig,4,2,
conner-48-ssreplicate,2,37,22,1,833,1,13_piano,13_rubberduck,13,13,Big-visBig,1,1,
conner-48-ssreplicate,1,39,22,2,1216,1,12_bookcase,12_pencil sharpener 5,12,12,Small-visBig,4,2,
conner-48-ssreplicate,1,40,22,1,1644,1,05_button,05_wagon,5,5,Big-visBig,1,1,
conner-48-ssreplicate,2,41,22,1,2024,1,18_hotairballoon,18_ringbox03,18,18,Big-visBig,1,1,
conner-48-ssreplicate,2,42,22,2,1630,1,15_scotchtape,15_couch2,15,15,Small-visBig,4,2,
conner-48-ssreplicate,1,43,22,2,2001,1,17_hotairballoon2,17_pinecone,17,17,Small-visBig,4,2,
conner-48-ssreplicate,1,44,22,1,1421,1,01_apple,01_desk,1,1,Big-visBig,1,1,
conner-48-ssreplicate,2,46,22,1,1565,1,14_washingMachine,14_perfume,14,14,Big-visBig,1,1,
conner-48-ssreplicate,1,47,22,1,1761,1,14_perfume,14_washingMachine,14,14,Big-visBig,1,1,
conner-48-ssreplicate,1,48,22,2,1433,1,13_piano,13_rubberduck,13,13,Small-visBig,4,2,
conner-48-ssreplicate,1,49,22,2,1192,1,04_tractor11,04_camera,4,4,Small-visBig,4,2,
conner-48-ssreplicate,2,50,22,1,1743,1,07_grill,07_dice,7,7,Big-visBig,1,1,
conner-48-ssreplicate,2,51,22,2,1331,1,12_pencil sharpener 5,12_bookcase,12,12,Small-visBig,4,2,
conner-48-ssreplicate,1,52,22,1,1160,1,06_cable,06_parthenon,6,6,Big-visBig,1,1,
conner-48-ssreplicate,1,53,22,2,969,1,18_hotairballoon,18_ringbox03,18,18,Small-visBig,4,2,
conner-48-ssreplicate,1,54,22,1,1064,1,10_bowtiepasta,10_bison,10,10,Big-visBig,1,1,
conner-48-ssreplicate,2,55,22,2,951,1,16_clock,16_garbagecan,16,16,Small-visBig,4,2,
conner-48-ssreplicate,2,56,22,1,1018,1,15_couch2,15_scotchtape,15,15,Big-visBig,1,1,
conner-48-ssreplicate,1,57,22,1,1112,1,07_dice,07_grill,7,7,Big-visBig,1,1,
conner-48-ssreplicate,1,58,22,2,1372,1,02_carousel,02_seashell,2,2,Small-visBig,4,2,
derrick-48-ssrepliate,1,11,23,1,1621,1,01_apple,01_desk,1,1,Big-visBig,1,1,
derrick-48-ssrepliate,2,12,23,1,1622,1,09_armchair,09_mushroom,9,9,Big-visBig,1,1,
derrick-48-ssrepliate,1,13,23,2,1758,1,19_refrigerator,19_garlic,19,19,Small-visBig,4,2,
derrick-48-ssrepliate,2,14,23,1,1180,1,02_carousel,02_seashell,2,2,Big-visBig,1,1,
derrick-48-ssrepliate,2,15,23,2,1447,1,10_bowtiepasta,10_bison,10,10,Small-visBig,4,2,
derrick-48-ssrepliate,1,16,23,1,1228,1,06_cable,06_parthenon,6,6,Big-visBig,1,1,
derrick-48-ssrepliate,1,17,23,2,1344,1,04_tractor11,04_camera,4,4,Small-visBig,4,2,
derrick-48-ssrepliate,2,18,23,1,990,1,03_sofachair,03_baseball 2,3,3,Big-visBig,1,1,
derrick-48-ssrepliate,1,19,23,1,1192,1,05_button,05_wagon,5,5,Big-visBig,1,1,
derrick-48-ssrepliate,2,20,23,2,2066,1,02_seashell,02_carousel,2,2,Small-visBig,4,2,
derrick-48-ssrepliate,2,21,23,2,1519,1,07_dice,07_grill,7,7,Small-visBig,4,2,
derrick-48-ssrepliate,1,22,23,1,2090,1,17_pinecone,17_hotairballoon2,17,17,Big-visBig,1,1,
derrick-48-ssrepliate,1,23,23,2,2780,1,14_washingMachine,14_perfume,14,14,Small-visBig,4,2,
derrick-48-ssrepliate,2,24,23,1,1027,1,07_grill,07_dice,7,7,Big-visBig,1,1,
derrick-48-ssrepliate,1,25,23,1,1552,1,12_pencil sharpener 5,12_bookcase,12,12,Big-visBig,1,1,
derrick-48-ssrepliate,2,26,23,2,1257,1,04_camera,04_tractor11,4,4,Small-visBig,4,2,
derrick-48-ssrepliate,1,28,23,2,3871,1,08_uprightpiano,08_changepurse,8,8,Small-visBig,4,2,
derrick-48-ssrepliate,1,29,23,2,1897,1,17_hotairballoon2,17_pinecone,17,17,Small-visBig,4,2,
derrick-48-ssrepliate,2,30,23,2,2760,1,14_perfume,14_washingMachine,14,14,Small-visBig,4,2,
derrick-48-ssrepliate,1,31,23,1,1984,1,03_baseball 2,03_sofachair,3,3,Big-visBig,1,1,
derrick-48-ssrepliate,2,32,23,1,1385,1,06_parthenon,06_cable,6,6,Big-visBig,1,1,
derrick-48-ssrepliate,2,33,23,2,2334,1,05_button,05_wagon,5,5,Small-visBig,4,2,
derrick-48-ssrepliate,1,34,23,2,1826,1,02_carousel,02_seashell,2,2,Small-visBig,4,2,
derrick-48-ssrepliate,2,35,23,1,977,1,08_uprightpiano,08_changepurse,8,8,Big-visBig,1,1,
derrick-48-ssrepliate,1,36,23,1,2227,1,11_controller,11_fountain13,11,11,Big-visBig,1,1,
derrick-48-ssrepliate,2,37,23,1,1436,1,17_hotairballoon2,17_pinecone,17,17,Big-visBig,1,1,
derrick-48-ssrepliate,1,38,23,1,1202,1,15_scotchtape,15_couch2,15,15,Big-visBig,1,1,
derrick-48-ssrepliate,2,39,23,2,1320,1,19_garlic,19_refrigerator,19,19,Small-visBig,4,2,
derrick-48-ssrepliate,1,40,23,2,2473,1,15_couch2,15_scotchtape,15,15,Small-visBig,4,2,
derrick-48-ssrepliate,2,41,23,1,3108,1,19_refrigerator,19_garlic,19,19,Big-visBig,1,1,
derrick-48-ssrepliate,2,42,23,2,1608,1,11_controller,11_fountain13,11,11,Small-visBig,4,2,
derrick-48-ssrepliate,1,43,23,2,1754,1,11_fountain13,11_controller,11,11,Small-visBig,4,2,
derrick-48-ssrepliate,1,44,23,1,1901,1,20_ornament,20_wheelchair,20,20,Big-visBig,1,1,
derrick-48-ssrepliate,1,45,23,2,1579,1,13_piano,13_rubberduck,13,13,Small-visBig,4,2,
derrick-48-ssrepliate,1,46,23,1,2719,1,07_dice,07_grill,7,7,Big-visBig,1,1,
derrick-48-ssrepliate,2,47,23,2,1202,1,16_clock,16_garbagecan,16,16,Small-visBig,4,2,
derrick-48-ssrepliate,2,48,23,1,1883,1,13_piano,13_rubberduck,13,13,Big-visBig,1,1,
derrick-48-ssrepliate,1,49,23,2,2413,1,05_wagon,05_button,5,5,Small-visBig,4,2,
derrick-48-ssrepliate,2,50,23,2,1298,1,01_apple,01_desk,1,1,Small-visBig,4,2,
derrick-48-ssrepliate,2,51,23,1,1675,1,15_couch2,15_scotchtape,15,15,Big-visBig,1,1,
derrick-48-ssrepliate,1,52,23,1,1495,1,19_garlic,19_refrigerator,19,19,Big-visBig,1,1,
derrick-48-ssrepliate,1,53,23,2,1562,1,20_wheelchair,20_ornament,20,20,Small-visBig,4,2,
derrick-48-ssrepliate,1,54,23,1,1607,1,04_camera,04_tractor11,4,4,Big-visBig,1,1,
derrick-48-ssrepliate,2,55,23,2,1185,1,09_mushroom,09_armchair,9,9,Small-visBig,4,2,
derrick-48-ssrepliate,2,56,23,1,2739,1,05_wagon,05_button,5,5,Big-visBig,1,1,
derrick-48-ssrepliate,2,57,23,2,1427,1,17_pinecone,17_hotairballoon2,17,17,Small-visBig,4,2,
derrick-48-ssrepliate,1,58,23,2,2387,1,07_grill,07_dice,7,7,Small-visBig,4,2,
derrick-48-ssrepliate,2,59,23,1,1242,1,12_bookcase,12_pencil sharpener 5,12,12,Big-visBig,1,1,
derrick-48-ssrepliate,1,60,23,1,2248,1,14_perfume,14_washingMachine,14,14,Big-visBig,1,1,
derrick-48-ssrepliate,1,61,23,2,3255,1,18_hotairballoon,18_ringbox03,18,18,Small-visBig,4,2,
derrick-48-ssrepliate,2,62,23,2,2187,1,12_pencil sharpener 5,12_bookcase,12,12,Small-visBig,4,2,
emma-48-duplicate,1,11,24,1,1012,1,10_bowtiepasta,10_bison,10,10,Big-visBig,1,1,
emma-48-duplicate,2,12,24,1,950,1,20_wheelchair,20_ornament,20,20,Big-visBig,1,1,
emma-48-duplicate,1,13,24,1,1189,1,02_seashell,02_carousel,2,2,Big-visBig,1,1,
emma-48-duplicate,2,14,24,1,1251,1,16_garbagecan,16_clock,16,16,Big-visBig,1,1,
emma-48-duplicate,2,15,24,2,1050,1,13_rubberduck,13_piano,13,13,Small-visBig,4,2,
emma-48-duplicate,1,16,24,2,1266,1,11_fountain13,11_controller,11,11,Small-visBig,4,2,
emma-48-duplicate,2,17,24,2,1413,1,09_mushroom,09_armchair,9,9,Small-visBig,4,2,
emma-48-duplicate,1,18,24,1,1129,1,08_changepurse,08_uprightpiano,8,8,Big-visBig,1,1,
emma-48-duplicate,2,19,24,1,870,1,19_refrigerator,19_garlic,19,19,Big-visBig,1,1,
emma-48-duplicate,1,20,24,2,1838,1,20_wheelchair,20_ornament,20,20,Small-visBig,4,2,
emma-48-duplicate,2,21,24,2,1221,1,03_baseball 2,03_sofachair,3,3,Small-visBig,4,2,
emma-48-duplicate,1,22,24,1,1250,1,17_pinecone,17_hotairballoon2,17,17,Big-visBig,1,1,
emma-48-duplicate,1,23,24,2,1367,1,13_piano,13_rubberduck,13,13,Small-visBig,4,2,
emma-48-duplicate,2,24,24,1,1234,1,15_couch2,15_scotchtape,15,15,Big-visBig,1,1,
emma-48-duplicate,2,25,24,1,1183,1,03_sofachair,03_baseball 2,3,3,Big-visBig,1,1,
emma-48-duplicate,1,26,24,2,1101,1,15_couch2,15_scotchtape,15,15,Small-visBig,4,2,
emma-48-duplicate,2,27,24,2,1339,1,02_seashell,02_carousel,2,2,Small-visBig,4,2,
emma-48-duplicate,1,28,24,1,958,1,12_pencil sharpener 5,12_bookcase,12,12,Big-visBig,1,1,
emma-48-duplicate,1,29,24,2,1182,1,19_refrigerator,19_garlic,19,19,Small-visBig,4,2,
emma-48-duplicate,2,30,24,1,952,1,18_hotairballoon,18_ringbox03,18,18,Big-visBig,1,1,
emma-48-duplicate,1,31,24,1,1096,1,09_mushroom,09_armchair,9,9,Big-visBig,1,1,
emma-48-duplicate,2,32,24,2,1074,1,11_controller,11_fountain13,11,11,Small-visBig,4,2,
emma-48-duplicate,2,33,24,2,1065,1,12_pencil sharpener 5,12_bookcase,12,12,Small-visBig,4,2,
emma-48-duplicate,2,34,24,1,1382,1,13_piano,13_rubberduck,13,13,Big-visBig,1,1,
emma-48-duplicate,1,35,24,1,1417,1,13_rubberduck,13_piano,13,13,Big-visBig,1,1,
emma-48-duplicate,1,36,24,2,1095,1,18_hotairballoon,18_ringbox03,18,18,Small-visBig,4,2,
emma-48-duplicate,2,37,24,1,2118,1,17_hotairballoon2,17_pinecone,17,17,Big-visBig,1,1,
emma-48-duplicate,1,38,24,2,1006,1,02_carousel,02_seashell,2,2,Small-visBig,4,2,
emma-48-duplicate,2,39,24,2,935,1,16_clock,16_garbagecan,16,16,Small-visBig,4,2,
emma-48-duplicate,1,40,24,1,1357,1,04_camera,04_tractor11,4,4,Big-visBig,1,1,
emma-48-duplicate,1,41,24,2,1110,1,14_washingMachine,14_perfume,14,14,Small-visBig,4,2,
emma-48-duplicate,1,42,24,1,1300,1,18_ringbox03,18_hotairballoon,18,18,Big-visBig,1,1,
emma-48-duplicate,2,43,24,2,1196,1,07_dice,07_grill,7,7,Small-visBig,4,2,
emma-48-duplicate,2,44,24,1,1784,1,02_carousel,02_seashell,2,2,Big-visBig,1,1,
emma-48-duplicate,1,45,24,1,1234,1,15_scotchtape,15_couch2,15,15,Big-visBig,1,1,
emma-48-duplicate,2,46,24,1,1181,1,10_bison,10_bowtiepasta,10,10,Big-visBig,1,1,
emma-48-duplicate,1,47,24,2,1173,1,03_sofachair,03_baseball 2,3,3,Small-visBig,4,2,
emma-48-duplicate,2,48,24,2,1069,1,20_ornament,20_wheelchair,20,20,Small-visBig,4,2,
emma-48-duplicate,1,49,24,1,1572,1,07_dice,07_grill,7,7,Big-visBig,1,1,
emma-48-duplicate,2,50,24,2,1369,1,18_ringbox03,18_hotairballoon,18,18,Small-visBig,4,2,
emma-48-duplicate,1,51,24,2,1582,1,10_bison,10_bowtiepasta,10,10,Small-visBig,4,2,
emma-48-duplicate,2,52,24,1,1624,1,04_tractor11,04_camera,4,4,Big-visBig,1,1,
emma-48-duplicate,1,53,24,1,1072,1,01_apple,01_desk,1,1,Big-visBig,1,1,
emma-48-duplicate,2,54,24,1,1658,1,06_parthenon,06_cable,6,6,Big-visBig,1,1,
emma-48-duplicate,1,55,24,2,1069,1,17_hotairballoon2,17_pinecone,17,17,Small-visBig,4,2,
emma-48-duplicate,2,56,24,2,1616,1,19_garlic,19_refrigerator,19,19,Small-visBig,4,2,
emma-48-duplicate,1,57,24,1,2206,1,19_garlic,19_refrigerator,19,19,Big-visBig,1,1,
ezequiel-48-ssduplicate,2,11,25,2,1004,1,01_apple,01_desk,1,1,Small-visBig,4,2,
ezequiel-48-ssduplicate,2,12,25,1,1518,1,10_bison,10_bowtiepasta,10,10,Big-visBig,1,1,
ezequiel-48-ssduplicate,1,13,25,2,1031,1,10_bison,10_bowtiepasta,10,10,Small-visBig,4,2,
ezequiel-48-ssduplicate,2,14,25,2,1498,1,10_bowtiepasta,10_bison,10,10,Small-visBig,4,2,
ezequiel-48-ssduplicate,2,15,25,1,1365,1,17_hotairballoon2,17_pinecone,17,17,Big-visBig,1,1,
ezequiel-48-ssduplicate,1,16,25,1,1153,1,17_pinecone,17_hotairballoon2,17,17,Big-visBig,1,1,
ezequiel-48-ssduplicate,2,17,25,2,1369,1,02_seashell,02_carousel,2,2,Small-visBig,4,2,
ezequiel-48-ssduplicate,1,18,25,2,856,1,18_hotairballoon,18_ringbox03,18,18,Small-visBig,4,2,
ezequiel-48-ssduplicate,2,19,25,1,1382,1,12_bookcase,12_pencil sharpener 5,12,12,Big-visBig,1,1,
ezequiel-48-ssduplicate,1,20,25,1,1078,1,15_scotchtape,15_couch2,15,15,Big-visBig,1,1,
ezequiel-48-ssduplicate,2,21,25,1,851,1,18_hotairballoon,18_ringbox03,18,18,Big-visBig,1,1,
ezequiel-48-ssduplicate,1,22,25,1,1074,1,04_camera,04_tractor11,4,4,Big-visBig,1,1,
ezequiel-48-ssduplicate,1,23,25,2,1115,1,12_bookcase,12_pencil sharpener 5,12,12,Small-visBig,4,2,
ezequiel-48-ssduplicate,2,24,25,2,1570,1,18_ringbox03,18_hotairballoon,18,18,Small-visBig,4,2,
ezequiel-48-ssduplicate,1,25,25,1,1281,1,06_cable,06_parthenon,6,6,Big-visBig,1,1,
ezequiel-48-ssduplicate,1,26,25,2,1331,1,09_armchair,09_mushroom,9,9,Small-visBig,4,2,
ezequiel-48-ssduplicate,2,27,25,1,1239,1,02_carousel,02_seashell,2,2,Big-visBig,1,1,
ezequiel-48-ssduplicate,2,28,25,2,984,1,16_clock,16_garbagecan,16,16,Small-visBig,4,2,
ezequiel-48-ssduplicate,1,29,25,1,1527,1,18_ringbox03,18_hotairballoon,18,18,Big-visBig,1,1,
ezequiel-48-ssduplicate,2,30,25,1,1406,1,03_sofachair,03_baseball 2,3,3,Big-visBig,1,1,
ezequiel-48-ssduplicate,2,31,25,2,1259,1,05_button,05_wagon,5,5,Small-visBig,4,2,
ezequiel-48-ssduplicate,1,32,25,2,937,1,07_grill,07_dice,7,7,Small-visBig,4,2,
ezequiel-48-ssduplicate,1,33,25,2,866,1,02_carousel,02_seashell,2,2,Small-visBig,4,2,
ezequiel-48-ssduplicate,1,34,25,1,931,1,11_controller,11_fountain13,11,11,Big-visBig,1,1,
ezequiel-48-ssduplicate,2,35,25,2,1612,1,11_controller,11_fountain13,11,11,Small-visBig,4,2,
ezequiel-48-ssduplicate,2,36,25,1,1036,1,20_wheelchair,20_ornament,20,20,Big-visBig,1,1,
ezequiel-48-ssduplicate,1,37,25,2,1129,1,08_uprightpiano,08_changepurse,8,8,Small-visBig,4,2,
ezequiel-48-ssduplicate,2,38,25,2,1297,1,09_mushroom,09_armchair,9,9,Small-visBig,4,2,
ezequiel-48-ssduplicate,2,39,25,1,835,1,04_tractor11,04_camera,4,4,Big-visBig,1,1,
ezequiel-48-ssduplicate,1,40,25,1,1777,1,13_rubberduck,13_piano,13,13,Big-visBig,1,1,
ezequiel-48-ssduplicate,1,41,25,2,744,1,15_couch2,15_scotchtape,15,15,Small-visBig,4,2,
ezequiel-48-ssduplicate,2,42,25,2,1267,1,14_perfume,14_washingMachine,14,14,Small-visBig,4,2,
ezequiel-48-ssduplicate,1,43,25,1,820,1,03_baseball 2,03_sofachair,3,3,Big-visBig,1,1,
ezequiel-48-ssduplicate,2,44,25,1,875,1,13_piano,13_rubberduck,13,13,Big-visBig,1,1,
ezequiel-48-ssduplicate,2,45,25,1,985,1,16_garbagecan,16_clock,16,16,Big-visBig,1,1,
ezequiel-48-ssduplicate,2,46,25,2,1680,1,15_scotchtape,15_couch2,15,15,Small-visBig,4,2,
ezequiel-48-ssduplicate,1,47,25,1,930,1,10_bowtiepasta,10_bison,10,10,Big-visBig,1,1,
ezequiel-48-ssduplicate,1,48,25,2,1194,1,05_wagon,05_button,5,5,Small-visBig,4,2,
ezequiel-48-ssduplicate,1,49,25,2,768,1,16_garbagecan,16_clock,16,16,Small-visBig,4,2,
ezequiel-48-ssduplicate,1,50,25,1,779,1,08_changepurse,08_uprightpiano,8,8,Big-visBig,1,1,
ezequiel-48-ssduplicate,2,51,25,2,1713,1,07_dice,07_grill,7,7,Small-visBig,4,2,
ezequiel-48-ssduplicate,2,52,25,1,895,1,08_uprightpiano,08_changepurse,8,8,Big-visBig,1,1,
ezequiel-48-ssduplicate,2,53,25,2,1568,1,17_pinecone,17_hotairballoon2,17,17,Small-visBig,4,2,
ezequiel-48-ssduplicate,1,54,25,2,909,1,13_piano,13_rubberduck,13,13,Small-visBig,4,2,
ezequiel-48-ssduplicate,1,55,25,1,1087,1,02_seashell,02_carousel,2,2,Big-visBig,1,1,
ezequiel-48-ssduplicate,2,56,25,1,1124,1,11_fountain13,11_controller,11,11,Big-visBig,1,1,
ezequiel-48-ssduplicate,1,57,25,1,746,1,19_garlic,19_refrigerator,19,19,Big-visBig,1,1,
george-48-ssreplicate,2,11,26,2,1801,1,16_clock,16_garbagecan,16,16,Small-visBig,4,2,
george-48-ssreplicate,1,12,26,2,2304,1,02_carousel,02_seashell,2,2,Small-visBig,4,2,
george-48-ssreplicate,2,13,26,2,1450,1,12_pencil sharpener 5,12_bookcase,12,12,Small-visBig,4,2,
george-48-ssreplicate,1,14,26,2,1451,1,01_desk,01_apple,1,1,Small-visBig,4,2,
george-48-ssreplicate,2,15,26,1,1380,1,11_fountain13,11_controller,11,11,Big-visBig,1,1,
george-48-ssreplicate,1,16,26,1,2957,1,20_ornament,20_wheelchair,20,20,Big-visBig,1,1,
george-48-ssreplicate,2,17,26,2,2873,1,20_ornament,20_wheelchair,20,20,Small-visBig,4,2,
george-48-ssreplicate,1,18,26,2,2939,1,19_refrigerator,19_garlic,19,19,Small-visBig,4,2,
george-48-ssreplicate,1,19,26,1,1830,1,04_camera,04_tractor11,4,4,Big-visBig,1,1,
george-48-ssreplicate,2,20,26,1,1683,1,18_hotairballoon,18_ringbox03,18,18,Big-visBig,1,1,
george-48-ssreplicate,2,21,26,1,2268,1,19_refrigerator,19_garlic,19,19,Big-visBig,1,1,
george-48-ssreplicate,1,22,26,1,2111,1,16_clock,16_garbagecan,16,16,Big-visBig,1,1,
george-48-ssreplicate,1,23,26,2,2000,1,05_wagon,05_button,5,5,Small-visBig,4,2,
george-48-ssreplicate,2,24,26,2,2765,1,14_perfume,14_washingMachine,14,14,Small-visBig,4,2,
george-48-ssreplicate,2,25,26,1,2215,1,04_tractor11,04_camera,4,4,Big-visBig,1,1,
george-48-ssreplicate,1,26,26,1,1687,1,07_dice,07_grill,7,7,Big-visBig,1,1,
george-48-ssreplicate,2,27,26,2,1440,1,03_baseball 2,03_sofachair,3,3,Small-visBig,4,2,
george-48-ssreplicate,1,29,26,1,1750,1,02_seashell,02_carousel,2,2,Big-visBig,1,1,
george-48-ssreplicate,2,30,26,2,1687,1,07_dice,07_grill,7,7,Small-visBig,4,2,
george-48-ssreplicate,2,31,26,1,1713,1,12_bookcase,12_pencil sharpener 5,12,12,Big-visBig,1,1,
george-48-ssreplicate,1,32,26,2,2049,1,10_bison,10_bowtiepasta,10,10,Small-visBig,4,2,
george-48-ssreplicate,1,33,26,1,1908,1,10_bowtiepasta,10_bison,10,10,Big-visBig,1,1,
george-48-ssreplicate,2,34,26,2,1883,1,02_seashell,02_carousel,2,2,Small-visBig,4,2,
george-48-ssreplicate,1,35,26,2,1817,1,20_wheelchair,20_ornament,20,20,Small-visBig,4,2,
george-48-ssreplicate,2,36,26,1,2347,1,02_carousel,02_seashell,2,2,Big-visBig,1,1,
george-48-ssreplicate,2,37,26,1,1450,1,13_piano,13_rubberduck,13,13,Big-visBig,1,1,
george-48-ssreplicate,1,38,26,2,1629,1,14_washingMachine,14_perfume,14,14,Small-visBig,4,2,
george-48-ssreplicate,1,39,26,1,1403,1,19_garlic,19_refrigerator,19,19,Big-visBig,1,1,
george-48-ssreplicate,2,40,26,2,1793,1,19_garlic,19_refrigerator,19,19,Small-visBig,4,2,
george-48-ssreplicate,1,41,26,2,1309,1,04_tractor11,04_camera,4,4,Small-visBig,4,2,
george-48-ssreplicate,2,42,26,2,1540,1,04_camera,04_tractor11,4,4,Small-visBig,4,2,
george-48-ssreplicate,1,43,26,1,1279,1,05_button,05_wagon,5,5,Big-visBig,1,1,
george-48-ssreplicate,2,44,26,1,1571,1,07_grill,07_dice,7,7,Big-visBig,1,1,
george-48-ssreplicate,1,45,26,1,2339,1,03_baseball 2,03_sofachair,3,3,Big-visBig,1,1,
george-48-ssreplicate,2,46,26,2,2440,1,17_pinecone,17_hotairballoon2,17,17,Small-visBig,4,2,
george-48-ssreplicate,2,47,26,1,1740,1,20_wheelchair,20_ornament,20,20,Big-visBig,1,1,
george-48-ssreplicate,1,48,26,2,2153,1,13_piano,13_rubberduck,13,13,Small-visBig,4,2,
george-48-ssreplicate,1,50,26,2,1416,1,12_bookcase,12_pencil sharpener 5,12,12,Small-visBig,4,2,
george-48-ssreplicate,2,51,26,1,1312,1,08_uprightpiano,08_changepurse,8,8,Big-visBig,1,1,
george-48-ssreplicate,1,52,26,1,2075,1,06_cable,06_parthenon,6,6,Big-visBig,1,1,
george-48-ssreplicate,1,53,26,2,3597,1,11_fountain13,11_controller,11,11,Small-visBig,4,2,
george-48-ssreplicate,2,54,26,1,1442,1,09_armchair,09_mushroom,9,9,Big-visBig,1,1,
george-48-ssreplicate,2,55,26,2,1890,1,08_changepurse,08_uprightpiano,8,8,Small-visBig,4,2,
george-48-ssreplicate,1,56,26,1,1400,1,13_rubberduck,13_piano,13,13,Big-visBig,1,1,
george-48-ssreplicate,1,57,26,2,1247,1,09_armchair,09_mushroom,9,9,Small-visBig,4,2,
george-48-ssreplicate,2,58,26,2,1799,1,15_scotchtape,15_couch2,15,15,Small-visBig,4,2,
george-48-ssreplicate,2,59,26,1,2262,1,03_sofachair,03_baseball 2,3,3,Big-visBig,1,1,
greta-48-ssreplicate,1,11,27,1,1029,1,18_ringbox03,18_hotairballoon,18,18,Big-visBig,1,1,
greta-48-ssreplicate,1,12,27,1,939,1,02_seashell,02_carousel,2,2,Big-visBig,1,1,
greta-48-ssreplicate,2,13,27,1,1131,1,12_bookcase,12_pencil sharpener 5,12,12,Big-visBig,1,1,
greta-48-ssreplicate,2,14,27,2,1901,1,10_bowtiepasta,10_bison,10,10,Small-visBig,4,2,
greta-48-ssreplicate,1,15,27,2,1084,1,19_refrigerator,19_garlic,19,19,Small-visBig,4,2,
greta-48-ssreplicate,1,16,27,1,915,1,10_bowtiepasta,10_bison,10,10,Big-visBig,1,1,
greta-48-ssreplicate,2,17,27,1,1168,1,15_couch2,15_scotchtape,15,15,Big-visBig,1,1,
greta-48-ssreplicate,2,18,27,2,1103,1,19_garlic,19_refrigerator,19,19,Small-visBig,4,2,
