id,correctSide,trial,sub,condition,RT,correct,leftImage,rightImage,imagePair,imagePairCheck,category,categoryNum,sizeNum,
14christian36,1,16,1,2,2399,1,17_hotairballoon2,17_pinecone,17,17,Small-visBig,4,2,
14christian36,1,23,1,2,1302,1,05_wagon,05_button,5,5,Small-visBig,4,2,
14christian36,1,26,1,1,2615,1,05_button,05_wagon,5,5,Big-visBig,1,1,
14christian36,2,27,1,1,3434,1,03_sofachair,03_baseball 2,3,3,Big-visBig,1,1,
14christian36,2,32,1,1,1918,1,20_wheelchair,20_ornament,20,20,Big-visBig,1,1,
14christian36,2,34,1,1,1566,1,15_couch2,15_scotchtape,15,15,Big-visBig,1,1,
14christian36,2,35,1,2,2509,1,14_perfume,14_washingMachine,14,14,Small-visBig,4,2,
14christian36,1,37,1,1,2101,1,08_changepurse,08_uprightpiano,8,8,Big-visBig,1,1,
14christian36,2,38,1,2,2715,1,17_pinecone,17_hotairballoon2,17,17,Small-visBig,4,2,
14christian36,1,40,1,2,1552,1,02_carousel,02_seashell,2,2,Small-visBig,4,2,
14christian36,1,43,1,1,1820,1,03_baseball 2,03_sofachair,3,3,Big-visBig,1,1,
14christian36,1,44,1,2,1525,1,04_tractor11,04_camera,4,4,Small-visBig,4,2,
14christian36,2,45,1,1,1033,1,13_piano,13_rubberduck,13,13,Big-visBig,1,1,
14christian36,1,47,1,1,2050,1,19_garlic,19_refrigerator,19,19,Big-visBig,1,1,
40rhea36,2,15,2,2,2757,1,19_garlic,19_refrigerator,19,19,Small-visBig,4,2,
40rhea36,2,18,2,2,2498,1,02_seashell,02_carousel,2,2,Small-visBig,4,2,
90jason48stroop,2,11,3,1,1514,1,11_fountain13,11_controller,11,11,Big-visBig,1,1,
90jason48stroop,2,12,3,2,2524,1,15_scotchtape,15_couch2,15,15,Small-visBig,4,2,
90jason48stroop,1,13,3,1,1389,1,08_changepurse,08_uprightpiano,8,8,Big-visBig,1,1,
90jason48stroop,2,14,3,2,1677,1,08_changepurse,08_uprightpiano,8,8,Small-visBig,4,2,
90jason48stroop,1,15,3,2,2013,1,05_wagon,05_button,5,5,Small-visBig,4,2,
90jason48stroop,2,16,3,1,2339,1,08_uprightpiano,08_changepurse,8,8,Big-visBig,1,1,
90jason48stroop,1,17,3,1,2271,1,18_ringbox03,18_hotairballoon,18,18,Big-visBig,1,1,
90jason48stroop,2,18,3,2,1900,1,11_controller,11_fountain13,11,11,Small-visBig,4,2,
90jason48stroop,2,19,3,1,2219,1,16_garbagecan,16_clock,16,16,Big-visBig,1,1,
90jason48stroop,1,21,3,1,2954,1,05_button,05_wagon,5,5,Big-visBig,1,1,
90jason48stroop,2,22,3,1,1478,1,07_grill,07_dice,7,7,Big-visBig,1,1,
90jason48stroop,1,23,3,2,1412,1,17_hotairballoon2,17_pinecone,17,17,Small-visBig,4,2,
90jason48stroop,1,25,3,2,1547,1,08_uprightpiano,08_changepurse,8,8,Small-visBig,4,2,
90jason48stroop,2,26,3,1,1394,1,03_sofachair,03_baseball 2,3,3,Big-visBig,1,1,
90jason48stroop,2,27,3,2,1370,1,02_seashell,02_carousel,2,2,Small-visBig,4,2,
90jason48stroop,1,28,3,1,1598,1,12_pencil sharpener 5,12_bookcase,12,12,Big-visBig,1,1,
90jason48stroop,1,29,3,1,1440,1,10_bowtiepasta,10_bison,10,10,Big-visBig,1,1,
90jason48stroop,2,30,3,2,3468,1,18_ringbox03,18_hotairballoon,18,18,Small-visBig,4,2,
90jason48stroop,1,31,3,2,1866,1,12_bookcase,12_pencil sharpener 5,12,12,Small-visBig,4,2,
90jason48stroop,2,32,3,1,2668,1,04_tractor11,04_camera,4,4,Big-visBig,1,1,
90jason48stroop,1,33,3,1,1386,1,19_garlic,19_refrigerator,19,19,Big-visBig,1,1,
90jason48stroop,2,35,3,2,3143,1,07_dice,07_grill,7,7,Small-visBig,4,2,
90jason48stroop,1,36,3,2,1867,1,06_parthenon,06_cable,6,6,Small-visBig,4,2,
90jason48stroop,1,37,3,2,1937,1,19_refrigerator,19_garlic,19,19,Small-visBig,4,2,
90jason48stroop,2,38,3,2,3768,1,06_cable,06_parthenon,6,6,Small-visBig,4,2,
90jason48stroop,1,40,3,1,2901,1,03_baseball 2,03_sofachair,3,3,Big-visBig,1,1,
90jason48stroop,2,41,3,1,2226,1,13_piano,13_rubberduck,13,13,Big-visBig,1,1,
90jason48stroop,2,42,3,2,1930,1,14_perfume,14_washingMachine,14,14,Small-visBig,4,2,
90jason48stroop,1,43,3,1,1590,1,02_seashell,02_carousel,2,2,Big-visBig,1,1,
90jason48stroop,1,44,3,2,2462,1,07_grill,07_dice,7,7,Small-visBig,4,2,
90jason48stroop,1,45,3,1,2513,1,20_ornament,20_wheelchair,20,20,Big-visBig,1,1,
90jason48stroop,1,46,3,2,1561,1,16_garbagecan,16_clock,16,16,Small-visBig,4,2,
90jason48stroop,2,47,3,1,2022,1,12_bookcase,12_pencil sharpener 5,12,12,Big-visBig,1,1,
90jason48stroop,2,49,3,1,2292,1,18_hotairballoon,18_ringbox03,18,18,Big-visBig,1,1,
90jason48stroop,1,50,3,2,2320,1,13_piano,13_rubberduck,13,13,Small-visBig,4,2,
90jason48stroop,2,51,3,2,1906,1,03_baseball 2,03_sofachair,3,3,Small-visBig,4,2,
90jason48stroop,1,52,3,1,1850,1,16_clock,16_garbagecan,16,16,Big-visBig,1,1,
90jason48stroop,2,53,3,1,1891,1,02_carousel,02_seashell,2,2,Big-visBig,1,1,
90jason48stroop,1,54,3,1,1338,1,01_apple,01_desk,1,1,Big-visBig,1,1,
90jason48stroop,1,55,3,2,2287,1,15_couch2,15_scotchtape,15,15,Small-visBig,4,2,
90jason48stroop,2,56,3,2,1182,1,19_garlic,19_refrigerator,19,19,Small-visBig,4,2,
90jason48stroop,2,57,3,2,1494,1,01_apple,01_desk,1,1,Small-visBig,4,2,
90jason48stroop,2,59,3,1,2141,1,17_hotairballoon2,17_pinecone,17,17,Big-visBig,1,1,
90jason48stroop,1,60,3,1,2500,1,13_rubberduck,13_piano,13,13,Big-visBig,1,1,
90jason48stroop,1,61,3,1,1347,1,09_mushroom,09_armchair,9,9,Big-visBig,1,1,
90jason48stroop,1,62,3,2,1775,1,11_fountain13,11_controller,11,11,Small-visBig,4,2,
90jason48stroop,2,63,3,2,1331,1,13_rubberduck,13_piano,13,13,Small-visBig,4,2,
90jason48stroop,2,64,3,1,2373,1,01_desk,01_apple,1,1,Big-visBig,1,1,
90jason48stroop,2,65,3,2,1292,1,16_clock,16_garbagecan,16,16,Small-visBig,4,2,
90jason48stroop,1,66,3,2,1622,1,03_sofachair,03_baseball 2,3,3,Small-visBig,4,2,
90jason48stroop,1,67,3,1,1855,1,17_pinecone,17_hotairballoon2,17,17,Big-visBig,1,1,
90jason48stroop,2,68,3,1,1903,1,05_wagon,05_button,5,5,Big-visBig,1,1,
90jason48stroop,2,69,3,1,1752,1,10_bison,10_bowtiepasta,10,10,Big-visBig,1,1,
90jason48stroop,2,70,3,2,1402,1,20_ornament,20_wheelchair,20,20,Small-visBig,4,2,
90jason48stroop,1,71,3,2,3047,1,01_desk,01_apple,1,1,Small-visBig,4,2,
90jason48stroop,1,72,3,1,1536,1,06_cable,06_parthenon,6,6,Big-visBig,1,1,
90jason48stroop,1,73,3,1,970,1,07_dice,07_grill,7,7,Big-visBig,1,1,
04miraStroop,2,11,4,1,1760,1,01_desk,01_apple,1,1,Big-visBig,1,1,
04miraStroop,1,12,4,1,1501,1,17_pinecone,17_hotairballoon2,17,17,Big-visBig,1,1,
04miraStroop,1,14,4,2,1827,1,15_couch2,15_scotchtape,15,15,Small-visBig,4,2,
04miraStroop,2,16,4,2,3224,1,15_scotchtape,15_couch2,15,15,Small-visBig,4,2,
04miraStroop,2,18,4,1,2513,1,08_uprightpiano,08_changepurse,8,8,Big-visBig,1,1,
04miraStroop,1,21,4,1,1794,1,16_clock,16_garbagecan,16,16,Big-visBig,1,1,
04miraStroop,2,23,4,2,1504,1,06_cable,06_parthenon,6,6,Small-visBig,4,2,
04miraStroop,1,24,4,2,1330,1,10_bison,10_bowtiepasta,10,10,Small-visBig,4,2,
04miraStroop,1,25,4,2,1475,1,04_tractor11,04_camera,4,4,Small-visBig,4,2,
04miraStroop,2,26,4,2,1778,1,16_clock,16_garbagecan,16,16,Small-visBig,4,2,
04miraStroop,2,28,4,1,1238,1,13_piano,13_rubberduck,13,13,Big-visBig,1,1,
04miraStroop,2,31,4,1,3778,1,15_couch2,15_scotchtape,15,15,Big-visBig,1,1,
04miraStroop,1,32,4,2,2030,1,06_parthenon,06_cable,6,6,Small-visBig,4,2,
04miraStroop,2,33,4,2,1883,1,12_pencil sharpener 5,12_bookcase,12,12,Small-visBig,4,2,
04miraStroop,2,34,4,1,3372,1,05_wagon,05_button,5,5,Big-visBig,1,1,
04miraStroop,1,36,4,2,2049,1,14_washingMachine,14_perfume,14,14,Small-visBig,4,2,
04miraStroop,2,38,4,2,3546,1,07_dice,07_grill,7,7,Small-visBig,4,2,
04miraStroop,2,39,4,1,3312,1,20_wheelchair,20_ornament,20,20,Big-visBig,1,1,
04miraStroop,2,41,4,1,3026,1,11_fountain13,11_controller,11,11,Big-visBig,1,1,
04miraStroop,2,42,4,2,2925,1,17_pinecone,17_hotairballoon2,17,17,Small-visBig,4,2,
04miraStroop,2,45,4,1,1843,1,06_parthenon,06_cable,6,6,Big-visBig,1,1,
04miraStroop,1,46,4,2,2577,1,17_hotairballoon2,17_pinecone,17,17,Small-visBig,4,2,
04miraStroop,1,47,4,1,2385,1,19_garlic,19_refrigerator,19,19,Big-visBig,1,1,
04miraStroop,2,48,4,2,1395,1,01_apple,01_desk,1,1,Small-visBig,4,2,
04miraStroop,2,49,4,2,1665,1,11_controller,11_fountain13,11,11,Small-visBig,4,2,
04miraStroop,1,52,4,1,2198,1,20_ornament,20_wheelchair,20,20,Big-visBig,1,1,
04miraStroop,1,53,4,1,2723,1,06_cable,06_parthenon,6,6,Big-visBig,1,1,
04miraStroop,1,54,4,2,2897,1,20_wheelchair,20_ornament,20,20,Small-visBig,4,2,
04miraStroop,2,55,4,1,1820,1,12_bookcase,12_pencil sharpener 5,12,12,Big-visBig,1,1,
04miraStroop,2,56,4,2,2435,1,10_bowtiepasta,10_bison,10,10,Small-visBig,4,2,
04miraStroop,2,57,4,1,2445,1,14_washingMachine,14_perfume,14,14,Big-visBig,1,1,
04miraStroop,2,58,4,2,2767,1,04_camera,04_tractor11,4,4,Small-visBig,4,2,
04miraStroop,1,59,4,1,1849,1,15_scotchtape,15_couch2,15,15,Big-visBig,1,1,
04miraStroop,1,60,4,2,2348,1,01_desk,01_apple,1,1,Small-visBig,4,2,
04miraStroop,2,61,4,1,3156,1,17_hotairballoon2,17_pinecone,17,17,Big-visBig,1,1,
04miraStroop,1,62,4,2,2325,1,09_armchair,09_mushroom,9,9,Small-visBig,4,2,
04miraStroop,1,63,4,1,3853,1,13_rubberduck,13_piano,13,13,Big-visBig,1,1,
04miraStroop,2,64,4,2,2734,1,19_garlic,19_refrigerator,19,19,Small-visBig,4,2,
04miraStroop,1,65,4,2,1363,1,08_uprightpiano,08_changepurse,8,8,Small-visBig,4,2,
04miraStroop,1,66,4,1,2092,1,04_camera,04_tractor11,4,4,Big-visBig,1,1,
04miraStroop,2,67,4,2,3454,1,18_ringbox03,18_hotairballoon,18,18,Small-visBig,4,2,
04miraStroop,2,68,4,1,1793,1,16_garbagecan,16_clock,16,16,Big-visBig,1,1,
04miraStroop,2,70,4,2,2617,1,08_changepurse,08_uprightpiano,8,8,Small-visBig,4,2,
04miraStroop,2,74,4,1,1910,1,18_hotairballoon,18_ringbox03,18,18,Big-visBig,1,1,
04miraStroop,2,75,4,2,3178,1,20_ornament,20_wheelchair,20,20,Small-visBig,4,2,
1corinne36,2,11,5,1,2417,1,13_piano,13_rubberduck,13,13,Big-visBig,1,1,
1corinne36,2,12,5,2,2537,1,18_ringbox03,18_hotairballoon,18,18,Small-visBig,4,2,
1corinne36,1,13,5,2,2069,1,15_couch2,15_scotchtape,15,15,Small-visBig,4,2,
1corinne36,1,14,5,1,1257,1,03_baseball 2,03_sofachair,3,3,Big-visBig,1,1,
1corinne36,2,15,5,1,1719,1,20_wheelchair,20_ornament,20,20,Big-visBig,1,1,
1corinne36,2,16,5,2,2022,1,19_garlic,19_refrigerator,19,19,Small-visBig,4,2,
1corinne36,2,17,5,1,1806,1,19_refrigerator,19_garlic,19,19,Big-visBig,1,1,
1corinne36,2,18,5,2,1333,1,12_pencil sharpener 5,12_bookcase,12,12,Small-visBig,4,2,
1corinne36,1,19,5,1,1906,1,15_scotchtape,15_couch2,15,15,Big-visBig,1,1,
1corinne36,1,20,5,2,2016,1,07_grill,07_dice,7,7,Small-visBig,4,2,
1corinne36,1,21,5,2,1432,1,11_fountain13,11_controller,11,11,Small-visBig,4,2,
1corinne36,1,23,5,1,760,1,14_perfume,14_washingMachine,14,14,Big-visBig,1,1,
1corinne36,2,24,5,2,311,1,14_perfume,14_washingMachine,14,14,Small-visBig,4,2,
1corinne36,1,25,5,1,2405,1,04_camera,04_tractor11,4,4,Big-visBig,1,1,
1corinne36,2,26,5,2,1636,1,01_apple,01_desk,1,1,Small-visBig,4,2,
1corinne36,2,27,5,1,1328,1,14_washingMachine,14_perfume,14,14,Big-visBig,1,1,
1corinne36,1,28,5,2,2023,1,17_hotairballoon2,17_pinecone,17,17,Small-visBig,4,2,
1corinne36,2,30,5,1,1610,1,17_hotairballoon2,17_pinecone,17,17,Big-visBig,1,1,
1corinne36,2,31,5,2,1765,1,15_scotchtape,15_couch2,15,15,Small-visBig,4,2,
1corinne36,1,32,5,2,2177,1,19_refrigerator,19_garlic,19,19,Small-visBig,4,2,
1corinne36,2,33,5,1,2064,1,11_fountain13,11_controller,11,11,Big-visBig,1,1,
1corinne36,1,34,5,1,2272,1,01_apple,01_desk,1,1,Big-visBig,1,1,
1corinne36,1,35,5,2,2112,1,12_bookcase,12_pencil sharpener 5,12,12,Small-visBig,4,2,
1corinne36,1,37,5,1,1619,1,12_pencil sharpener 5,12_bookcase,12,12,Big-visBig,1,1,
1corinne36,2,38,5,2,908,1,08_changepurse,08_uprightpiano,8,8,Small-visBig,4,2,
1corinne36,1,39,5,2,2087,1,16_garbagecan,16_clock,16,16,Small-visBig,4,2,
1corinne36,2,40,5,2,1556,1,10_bowtiepasta,10_bison,10,10,Small-visBig,4,2,
1corinne36,2,41,5,1,1127,1,18_hotairballoon,18_ringbox03,18,18,Big-visBig,1,1,
1corinne36,1,42,5,1,3220,1,07_dice,07_grill,7,7,Big-visBig,1,1,
1corinne36,1,43,5,2,1528,1,10_bison,10_bowtiepasta,10,10,Small-visBig,4,2,
1corinne36,1,44,5,1,1268,1,17_pinecone,17_hotairballoon2,17,17,Big-visBig,1,1,
1corinne36,2,45,5,1,3045,1,16_garbagecan,16_clock,16,16,Big-visBig,1,1,
1corinne36,2,46,5,2,2487,1,20_ornament,20_wheelchair,20,20,Small-visBig,4,2,
1corinne36,2,48,5,2,1837,1,09_mushroom,09_armchair,9,9,Small-visBig,4,2,
1corinne36,1,49,5,2,1942,1,06_parthenon,06_cable,6,6,Small-visBig,4,2,
1corinne36,2,50,5,1,2460,1,07_grill,07_dice,7,7,Big-visBig,1,1,
1corinne36,1,51,5,1,1595,1,19_garlic,19_refrigerator,19,19,Big-visBig,1,1,
1corinne36,2,52,5,2,1676,1,05_button,05_wagon,5,5,Small-visBig,4,2,
1corinne36,1,53,5,1,2238,1,06_cable,06_parthenon,6,6,Big-visBig,1,1,
1corinne36,2,54,5,1,1131,1,10_bison,10_bowtiepasta,10,10,Big-visBig,1,1,
1corinne36,1,55,5,2,891,1,03_sofachair,03_baseball 2,3,3,Small-visBig,4,2,
1corinne36,2,56,5,2,1425,1,04_camera,04_tractor11,4,4,Small-visBig,4,2,
1corinne36,1,57,5,1,1365,1,02_seashell,02_carousel,2,2,Big-visBig,1,1,
1corinne36,2,58,5,1,1426,1,06_parthenon,06_cable,6,6,Big-visBig,1,1,
1corinne36,1,59,5,2,2238,1,18_hotairballoon,18_ringbox03,18,18,Small-visBig,4,2,
1corinne36,1,60,5,2,1731,1,09_armchair,09_mushroom,9,9,Small-visBig,4,2,
1corinne36,2,61,5,2,3114,1,07_dice,07_grill,7,7,Small-visBig,4,2,
1corinne36,1,62,5,1,2775,1,09_mushroom,09_armchair,9,9,Big-visBig,1,1,
1corinne36,2,63,5,1,2607,1,08_uprightpiano,08_changepurse,8,8,Big-visBig,1,1,
1corinne36,2,64,5,1,2458,1,12_bookcase,12_pencil sharpener 5,12,12,Big-visBig,1,1,
1corinne36,1,65,5,1,1723,1,18_ringbox03,18_hotairballoon,18,18,Big-visBig,1,1,
1corinne36,1,66,5,2,2364,1,14_washingMachine,14_perfume,14,14,Small-visBig,4,2,
1corinne36,2,67,5,2,2415,1,16_clock,16_garbagecan,16,16,Small-visBig,4,2,
1corinne36,2,68,5,2,1751,1,06_cable,06_parthenon,6,6,Small-visBig,4,2,
1corinne36,1,70,5,1,2616,1,10_bowtiepasta,10_bison,10,10,Big-visBig,1,1,
1corinne36,1,71,5,2,1798,1,01_desk,01_apple,1,1,Small-visBig,4,2,
1corinne36,2,72,5,1,1755,1,15_couch2,15_scotchtape,15,15,Big-visBig,1,1,
1corinne36,1,73,5,2,1461,1,20_wheelchair,20_ornament,20,20,Small-visBig,4,2,
1corinne36,2,74,5,2,1404,1,02_seashell,02_carousel,2,2,Small-visBig,4,2,
1corinne36,1,75,5,1,1318,1,16_clock,16_garbagecan,16,16,Big-visBig,1,1,
28olivia36,2,11,6,2,1499,1,12_pencil sharpener 5,12_bookcase,12,12,Small-visBig,4,2,
28olivia36,2,12,6,1,2128,1,12_bookcase,12_pencil sharpener 5,12,12,Big-visBig,1,1,
28olivia36,1,13,6,1,1348,1,13_rubberduck,13_piano,13,13,Big-visBig,1,1,
28olivia36,1,14,6,2,1500,1,12_bookcase,12_pencil sharpener 5,12,12,Small-visBig,4,2,
28olivia36,2,15,6,2,2432,1,19_garlic,19_refrigerator,19,19,Small-visBig,4,2,
28olivia36,2,16,6,1,3709,1,17_hotairballoon2,17_pinecone,17,17,Big-visBig,1,1,
28olivia36,1,17,6,2,1476,1,15_couch2,15_scotchtape,15,15,Small-visBig,4,2,
28olivia36,1,18,6,1,2007,1,15_scotchtape,15_couch2,15,15,Big-visBig,1,1,
28olivia36,2,19,6,2,2007,1,04_camera,04_tractor11,4,4,Small-visBig,4,2,
28olivia36,2,20,6,1,1915,1,08_uprightpiano,08_changepurse,8,8,Big-visBig,1,1,
28olivia36,1,21,6,1,1436,1,20_ornament,20_wheelchair,20,20,Big-visBig,1,1,
28olivia36,2,22,6,1,1703,1,18_hotairballoon,18_ringbox03,18,18,Big-visBig,1,1,
28olivia36,1,23,6,2,1909,1,05_wagon,05_button,5,5,Small-visBig,4,2,
28olivia36,2,24,6,2,2226,1,01_apple,01_desk,1,1,Small-visBig,4,2,
28olivia36,1,25,6,1,1616,1,14_perfume,14_washingMachine,14,14,Big-visBig,1,1,
28olivia36,2,26,6,2,1543,1,05_button,05_wagon,5,5,Small-visBig,4,2,
28olivia36,1,27,6,2,2493,1,14_washingMachine,14_perfume,14,14,Small-visBig,4,2,
28olivia36,2,28,6,1,1445,1,07_grill,07_dice,7,7,Big-visBig,1,1,
28olivia36,1,29,6,1,3616,1,06_cable,06_parthenon,6,6,Big-visBig,1,1,
28olivia36,1,30,6,2,1749,1,13_piano,13_rubberduck,13,13,Small-visBig,4,2,
28olivia36,2,31,6,2,2127,1,07_dice,07_grill,7,7,Small-visBig,4,2,
28olivia36,2,32,6,1,1746,1,10_bison,10_bowtiepasta,10,10,Big-visBig,1,1,
28olivia36,2,33,6,1,1574,1,04_tractor11,04_camera,4,4,Big-visBig,1,1,
28olivia36,2,34,6,2,1867,1,11_controller,11_fountain13,11,11,Small-visBig,4,2,
28olivia36,1,35,6,2,3752,1,02_carousel,02_seashell,2,2,Small-visBig,4,2,
28olivia36,1,36,6,1,3350,1,04_camera,04_tractor11,4,4,Big-visBig,1,1,
28olivia36,2,37,6,1,2496,1,03_sofachair,03_baseball 2,3,3,Big-visBig,1,1,
28olivia36,1,38,6,2,1871,1,01_desk,01_apple,1,1,Small-visBig,4,2,
28olivia36,2,39,6,2,2696,1,18_ringbox03,18_hotairballoon,18,18,Small-visBig,4,2,
28olivia36,1,40,6,1,2843,1,02_seashell,02_carousel,2,2,Big-visBig,1,1,
28olivia36,1,41,6,1,2125,1,16_clock,16_garbagecan,16,16,Big-visBig,1,1,
28olivia36,2,42,6,1,2030,1,13_piano,13_rubberduck,13,13,Big-visBig,1,1,
28olivia36,2,43,6,2,2219,1,10_bowtiepasta,10_bison,10,10,Small-visBig,4,2,
28olivia36,1,44,6,2,2689,1,18_hotairballoon,18_ringbox03,18,18,Small-visBig,4,2,
28olivia36,1,45,6,2,2109,1,03_sofachair,03_baseball 2,3,3,Small-visBig,4,2,
47stella36,1,11,7,1,2887,1,08_changepurse,08_uprightpiano,8,8,Big-visBig,1,1,
47stella36,1,12,7,2,1770,1,01_desk,01_apple,1,1,Small-visBig,4,2,
47stella36,2,13,7,2,2160,1,04_camera,04_tractor11,4,4,Small-visBig,4,2,
47stella36,1,14,7,1,3341,1,06_cable,06_parthenon,6,6,Big-visBig,1,1,
47stella36,1,15,7,2,2194,1,09_armchair,09_mushroom,9,9,Small-visBig,4,2,
47stella36,2,16,7,1,3236,1,08_uprightpiano,08_changepurse,8,8,Big-visBig,1,1,
47stella36,1,17,7,2,1959,1,16_garbagecan,16_clock,16,16,Small-visBig,4,2,
47stella36,2,18,7,2,1509,1,06_cable,06_parthenon,6,6,Small-visBig,4,2,
47stella36,2,19,7,1,1588,1,04_tractor11,04_camera,4,4,Big-visBig,1,1,
47stella36,2,22,7,1,2026,1,05_wagon,05_button,5,5,Big-visBig,1,1,
47stella36,1,23,7,1,1749,1,04_camera,04_tractor11,4,4,Big-visBig,1,1,
47stella36,2,25,7,2,1816,1,19_garlic,19_refrigerator,19,19,Small-visBig,4,2,
47stella36,2,27,7,1,2050,1,06_parthenon,06_cable,6,6,Big-visBig,1,1,
47stella36,2,32,7,2,1940,1,01_apple,01_desk,1,1,Small-visBig,4,2,
47stella36,2,33,7,1,3927,1,19_refrigerator,19_garlic,19,19,Big-visBig,1,1,
47stella36,2,38,7,1,1863,1,10_bison,10_bowtiepasta,10,10,Big-visBig,1,1,
47stella36,1,39,7,1,1978,1,07_dice,07_grill,7,7,Big-visBig,1,1,
47stella36,1,40,7,2,1618,1,15_couch2,15_scotchtape,15,15,Small-visBig,4,2,
47stella36,2,43,7,1,2107,1,07_grill,07_dice,7,7,Big-visBig,1,1,
47stella36,1,45,7,2,2552,1,08_uprightpiano,08_changepurse,8,8,Small-visBig,4,2,
47stella36,1,47,7,1,2203,1,03_baseball 2,03_sofachair,3,3,Big-visBig,1,1,
47stella36,2,48,7,1,2197,1,15_couch2,15_scotchtape,15,15,Big-visBig,1,1,
47stella36,1,49,7,2,1672,1,04_tractor11,04_camera,4,4,Small-visBig,4,2,
47stella36,2,50,7,2,3104,1,05_button,05_wagon,5,5,Small-visBig,4,2,
47stella36,2,51,7,1,3141,1,09_armchair,09_mushroom,9,9,Big-visBig,1,1,
47stella36,1,52,7,1,2351,1,20_ornament,20_wheelchair,20,20,Big-visBig,1,1,
47stella36,1,54,7,1,1431,1,17_pinecone,17_hotairballoon2,17,17,Big-visBig,1,1,
47stella36,2,55,7,1,2183,1,01_desk,01_apple,1,1,Big-visBig,1,1,
47stella36,1,56,7,2,2031,1,03_sofachair,03_baseball 2,3,3,Small-visBig,4,2,
47stella36,2,57,7,1,2023,1,02_carousel,02_seashell,2,2,Big-visBig,1,1,
47stella36,1,59,7,2,1950,1,06_parthenon,06_cable,6,6,Small-visBig,4,2,
47stella36,2,60,7,2,1991,1,03_baseball 2,03_sofachair,3,3,Small-visBig,4,2,
47stella36,2,61,7,1,1949,1,16_garbagecan,16_clock,16,16,Big-visBig,1,1,
47stella36,1,62,7,2,1418,1,18_hotairballoon,18_ringbox03,18,18,Small-visBig,4,2,
47stella36,2,63,7,2,2824,1,12_pencil sharpener 5,12_bookcase,12,12,Small-visBig,4,2,
47stella36,1,64,7,1,1428,1,05_button,05_wagon,5,5,Big-visBig,1,1,
47stella36,2,70,7,1,1870,1,18_hotairballoon,18_ringbox03,18,18,Big-visBig,1,1,
47stella36,1,72,7,1,3264,1,10_bowtiepasta,10_bison,10,10,Big-visBig,1,1,
47stella36,1,73,7,2,1745,1,10_bison,10_bowtiepasta,10,10,Small-visBig,4,2,
47stella36,2,74,7,1,1039,1,03_sofachair,03_baseball 2,3,3,Big-visBig,1,1,
47stella36,1,76,7,1,2262,1,01_apple,01_desk,1,1,Big-visBig,1,1,
47stella36,2,77,7,1,1729,1,12_bookcase,12_pencil sharpener 5,12,12,Big-visBig,1,1,
47stella36,2,78,7,2,1252,1,15_scotchtape,15_couch2,15,15,Small-visBig,4,2,
47stella36,1,79,7,2,2592,1,20_wheelchair,20_ornament,20,20,Small-visBig,4,2,
47stella36,1,80,7,1,1735,1,19_garlic,19_refrigerator,19,19,Big-visBig,1,1,
84ben38stroop,1,12,8,2,3133,1,14_washingMachine,14_perfume,14,14,Small-visBig,4,2,
84ben38stroop,1,13,8,2,2350,1,06_parthenon,06_cable,6,6,Small-visBig,4,2,
84ben38stroop,1,15,8,1,3427,1,14_perfume,14_washingMachine,14,14,Big-visBig,1,1,
84ben38stroop,2,16,8,2,3258,1,09_mushroom,09_armchair,9,9,Small-visBig,4,2,
84ben38stroop,1,18,8,1,2878,1,16_clock,16_garbagecan,16,16,Big-visBig,1,1,
84ben38stroop,2,19,8,1,3217,1,13_piano,13_rubberduck,13,13,Big-visBig,1,1,
84ben38stroop,2,21,8,1,2460,1,20_wheelchair,20_ornament,20,20,Big-visBig,1,1,
84ben38stroop,1,23,8,1,2947,1,15_scotchtape,15_couch2,15,15,Big-visBig,1,1,
84ben38stroop,1,25,8,2,2098,1,18_hotairballoon,18_ringbox03,18,18,Small-visBig,4,2,
84ben38stroop,2,29,8,1,2064,1,16_garbagecan,16_clock,16,16,Big-visBig,1,1,
84ben38stroop,1,30,8,2,2321,1,11_fountain13,11_controller,11,11,Small-visBig,4,2,
84ben38stroop,1,31,8,1,3303,1,17_pinecone,17_hotairballoon2,17,17,Big-visBig,1,1,
84ben38stroop,2,32,8,2,1653,1,02_seashell,02_carousel,2,2,Small-visBig,4,2,
84ben38stroop,2,33,8,1,2481,1,07_grill,07_dice,7,7,Big-visBig,1,1,
84ben38stroop,2,34,8,2,1391,1,04_camera,04_tractor11,4,4,Small-visBig,4,2,
84ben38stroop,1,35,8,2,1722,1,09_armchair,09_mushroom,9,9,Small-visBig,4,2,
84ben38stroop,1,36,8,1,1595,1,11_controller,11_fountain13,11,11,Big-visBig,1,1,
84ben38stroop,2,37,8,2,1566,1,14_perfume,14_washingMachine,14,14,Small-visBig,4,2,
84ben38stroop,2,38,8,1,2966,1,02_carousel,02_seashell,2,2,Big-visBig,1,1,
84ben38stroop,1,39,8,2,1871,1,12_bookcase,12_pencil sharpener 5,12,12,Small-visBig,4,2,
84ben38stroop,2,43,8,2,2759,1,17_pinecone,17_hotairballoon2,17,17,Small-visBig,4,2,
84ben38stroop,1,44,8,1,3690,1,20_ornament,20_wheelchair,20,20,Big-visBig,1,1,
84ben38stroop,1,46,8,1,2015,1,19_garlic,19_refrigerator,19,19,Big-visBig,1,1,
84ben38stroop,2,54,8,1,3048,1,15_couch2,15_scotchtape,15,15,Big-visBig,1,1,
84ben38stroop,2,55,8,2,1749,1,18_ringbox03,18_hotairballoon,18,18,Small-visBig,4,2,
84ben38stroop,1,56,8,2,3947,1,15_couch2,15_scotchtape,15,15,Small-visBig,4,2,
84ben38stroop,1,58,8,1,1650,1,01_apple,01_desk,1,1,Big-visBig,1,1,
84ben38stroop,2,60,8,1,2615,1,06_parthenon,06_cable,6,6,Big-visBig,1,1,
84ben38stroop,2,61,8,1,1476,1,09_armchair,09_mushroom,9,9,Big-visBig,1,1,
84ben38stroop,1,62,8,2,3699,1,07_grill,07_dice,7,7,Small-visBig,4,2,
84ben38stroop,1,64,8,1,2141,1,13_rubberduck,13_piano,13,13,Big-visBig,1,1,
84ben38stroop,1,65,8,1,3005,1,06_cable,06_parthenon,6,6,Big-visBig,1,1,
84ben38stroop,2,67,8,2,2559,1,03_baseball 2,03_sofachair,3,3,Small-visBig,4,2,
84ben38stroop,1,69,8,2,3347,1,17_hotairballoon2,17_pinecone,17,17,Small-visBig,4,2,
84ben38stroop,1,70,8,1,2317,1,04_camera,04_tractor11,4,4,Big-visBig,1,1,
84ben38stroop,2,71,8,1,3511,1,17_hotairballoon2,17_pinecone,17,17,Big-visBig,1,1,
84ben38stroop,2,72,8,2,3981,1,01_apple,01_desk,1,1,Small-visBig,4,2,
84ben38stroop,1,75,8,1,2119,1,03_baseball 2,03_sofachair,3,3,Big-visBig,1,1,
84ben38stroop,1,77,8,2,3564,1,13_piano,13_rubberduck,13,13,Small-visBig,4,2,
09suryavir37stroop,1,11,9,1,838,1,07_dice,07_grill,7,7,Big-visBig,1,1,
09suryavir37stroop,2,12,9,1,886,1,18_hotairballoon,18_ringbox03,18,18,Big-visBig,1,1,
09suryavir37stroop,1,15,9,1,779,1,18_ringbox03,18_hotairballoon,18,18,Big-visBig,1,1,
09suryavir37stroop,1,23,9,1,2273,1,01_apple,01_desk,1,1,Big-visBig,1,1,
09suryavir37stroop,1,24,9,2,1142,1,04_tractor11,04_camera,4,4,Small-visBig,4,2,
09suryavir37stroop,1,27,9,2,862,1,20_wheelchair,20_ornament,20,20,Small-visBig,4,2,
09suryavir37stroop,1,28,9,1,961,1,15_scotchtape,15_couch2,15,15,Big-visBig,1,1,
09suryavir37stroop,1,31,9,1,887,1,06_cable,06_parthenon,6,6,Big-visBig,1,1,
09suryavir37stroop,1,32,9,2,853,1,19_refrigerator,19_garlic,19,19,Small-visBig,4,2,
09suryavir37stroop,1,33,9,2,856,1,03_sofachair,03_baseball 2,3,3,Small-visBig,4,2,
09suryavir37stroop,1,35,9,1,828,1,19_garlic,19_refrigerator,19,19,Big-visBig,1,1,
09suryavir37stroop,1,37,9,2,825,1,11_fountain13,11_controller,11,11,Small-visBig,4,2,
09suryavir37stroop,1,40,9,1,943,1,14_perfume,14_washingMachine,14,14,Big-visBig,1,1,
09suryavir37stroop,1,42,9,1,809,1,13_rubberduck,13_piano,13,13,Big-visBig,1,1,
09suryavir37stroop,1,44,9,2,842,1,10_bison,10_bowtiepasta,10,10,Small-visBig,4,2,
09suryavir37stroop,1,46,9,1,790,1,11_controller,11_fountain13,11,11,Big-visBig,1,1,
09suryavir37stroop,1,47,9,2,647,1,08_uprightpiano,08_changepurse,8,8,Small-visBig,4,2,
09suryavir37stroop,1,51,9,1,1151,1,04_camera,04_tractor11,4,4,Big-visBig,1,1,
09suryavir37stroop,1,54,9,2,737,1,18_hotairballoon,18_ringbox03,18,18,Small-visBig,4,2,
09suryavir37stroop,1,56,9,1,726,1,10_bowtiepasta,10_bison,10,10,Big-visBig,1,1,
09suryavir37stroop,1,58,9,2,749,1,02_carousel,02_seashell,2,2,Small-visBig,4,2,
09suryavir37stroop,1,59,9,1,884,1,16_clock,16_garbagecan,16,16,Big-visBig,1,1,
09suryavir37stroop,1,62,9,1,749,1,02_seashell,02_carousel,2,2,Big-visBig,1,1,
09suryavir37stroop,1,64,9,2,784,1,16_garbagecan,16_clock,16,16,Small-visBig,4,2,
09suryavir37stroop,1,66,9,1,524,1,20_ornament,20_wheelchair,20,20,Big-visBig,1,1,
09suryavir37stroop,1,67,9,2,660,1,12_bookcase,12_pencil sharpener 5,12,12,Small-visBig,4,2,
09suryavir37stroop,1,69,9,1,973,1,09_mushroom,09_armchair,9,9,Big-visBig,1,1,
09suryavir37stroop,1,71,9,2,1065,1,06_parthenon,06_cable,6,6,Small-visBig,4,2,
09suryavir37stroop,1,75,9,1,542,1,12_pencil sharpener 5,12_bookcase,12,12,Big-visBig,1,1,
09suryavir37stroop,1,76,9,2,578,1,17_hotairballoon2,17_pinecone,17,17,Small-visBig,4,2,
09suryavir37stroop,1,78,9,2,814,1,01_desk,01_apple,1,1,Small-visBig,4,2,
09suryavir37stroop,1,79,9,1,627,1,17_pinecone,17_hotairballoon2,17,17,Big-visBig,1,1,
79miles48stroop,2,11,10,1,1562,1,08_uprightpiano,08_changepurse,8,8,Big-visBig,1,1,
79miles48stroop,1,12,10,1,1089,1,03_baseball 2,03_sofachair,3,3,Big-visBig,1,1,
79miles48stroop,2,13,10,1,1636,1,18_hotairballoon,18_ringbox03,18,18,Big-visBig,1,1,
79miles48stroop,2,14,10,2,1335,1,19_garlic,19_refrigerator,19,19,Small-visBig,4,2,
79miles48stroop,1,15,10,2,1448,1,09_armchair,09_mushroom,9,9,Small-visBig,4,2,
79miles48stroop,1,16,10,1,1300,1,12_pencil sharpener 5,12_bookcase,12,12,Big-visBig,1,1,
79miles48stroop,2,17,10,2,1447,1,08_changepurse,08_uprightpiano,8,8,Small-visBig,4,2,
79miles48stroop,2,18,10,1,1249,1,11_fountain13,11_controller,11,11,Big-visBig,1,1,
79miles48stroop,1,19,10,1,1303,1,08_changepurse,08_uprightpiano,8,8,Big-visBig,1,1,
79miles48stroop,1,20,10,2,1919,1,10_bison,10_bowtiepasta,10,10,Small-visBig,4,2,
79miles48stroop,2,21,10,2,1401,1,15_scotchtape,15_couch2,15,15,Small-visBig,4,2,
79miles48stroop,2,22,10,1,1234,1,15_couch2,15_scotchtape,15,15,Big-visBig,1,1,
79miles48stroop,1,24,10,1,2778,1,05_button,05_wagon,5,5,Big-visBig,1,1,
79miles48stroop,1,25,10,2,1478,1,06_parthenon,06_cable,6,6,Small-visBig,4,2,
79miles48stroop,1,26,10,1,1218,1,16_clock,16_garbagecan,16,16,Big-visBig,1,1,
79miles48stroop,2,28,10,1,1137,1,19_refrigerator,19_garlic,19,19,Big-visBig,1,1,
79miles48stroop,2,29,10,1,1488,1,02_carousel,02_seashell,2,2,Big-visBig,1,1,
79miles48stroop,2,30,10,2,1344,1,02_seashell,02_carousel,2,2,Small-visBig,4,2,
79miles48stroop,1,32,10,1,1724,1,06_cable,06_parthenon,6,6,Big-visBig,1,1,
79miles48stroop,2,33,10,1,2077,1,14_washingMachine,14_perfume,14,14,Big-visBig,1,1,
79miles48stroop,1,34,10,1,2027,1,10_bowtiepasta,10_bison,10,10,Big-visBig,1,1,
79miles48stroop,1,35,10,2,3326,1,12_bookcase,12_pencil sharpener 5,12,12,Small-visBig,4,2,
79miles48stroop,2,37,10,1,2767,1,20_wheelchair,20_ornament,20,20,Big-visBig,1,1,
79miles48stroop,2,38,10,2,1879,1,04_camera,04_tractor11,4,4,Small-visBig,4,2,
79miles48stroop,1,39,10,2,1521,1,18_hotairballoon,18_ringbox03,18,18,Small-visBig,4,2,
79miles48stroop,1,40,10,1,1431,1,15_scotchtape,15_couch2,15,15,Big-visBig,1,1,
79miles48stroop,2,41,10,2,2337,1,14_perfume,14_washingMachine,14,14,Small-visBig,4,2,
79miles48stroop,2,42,10,1,1402,1,17_hotairballoon2,17_pinecone,17,17,Big-visBig,1,1,
79miles48stroop,1,44,10,1,1257,1,11_controller,11_fountain13,11,11,Big-visBig,1,1,
79miles48stroop,1,45,10,2,2602,1,07_grill,07_dice,7,7,Small-visBig,4,2,
79miles48stroop,2,46,10,2,1363,1,09_mushroom,09_armchair,9,9,Small-visBig,4,2,
79miles48stroop,2,47,10,1,2046,1,16_garbagecan,16_clock,16,16,Big-visBig,1,1,
79miles48stroop,1,48,10,1,1727,1,14_perfume,14_washingMachine,14,14,Big-visBig,1,1,
79miles48stroop,1,49,10,1,1312,1,02_seashell,02_carousel,2,2,Big-visBig,1,1,
79miles48stroop,2,50,10,2,1364,1,12_pencil sharpener 5,12_bookcase,12,12,Small-visBig,4,2,
79miles48stroop,2,51,10,1,1541,1,06_parthenon,06_cable,6,6,Big-visBig,1,1,
79miles48stroop,1,54,10,1,2680,1,04_camera,04_tractor11,4,4,Big-visBig,1,1,
79miles48stroop,2,55,10,1,3344,1,09_armchair,09_mushroom,9,9,Big-visBig,1,1,
79miles48stroop,2,57,10,1,1891,1,07_grill,07_dice,7,7,Big-visBig,1,1,
79miles48stroop,1,58,10,1,1930,1,19_garlic,19_refrigerator,19,19,Big-visBig,1,1,
79miles48stroop,1,59,10,2,1562,1,08_uprightpiano,08_changepurse,8,8,Small-visBig,4,2,
79miles48stroop,2,60,10,2,1285,1,05_button,05_wagon,5,5,Small-visBig,4,2,
79miles48stroop,1,61,10,1,1696,1,13_rubberduck,13_piano,13,13,Big-visBig,1,1,
79miles48stroop,1,62,10,2,1704,1,19_refrigerator,19_garlic,19,19,Small-visBig,4,2,
79miles48stroop,2,63,10,2,1699,1,13_rubberduck,13_piano,13,13,Small-visBig,4,2,
79miles48stroop,2,64,10,1,1525,1,04_tractor11,04_camera,4,4,Big-visBig,1,1,
fionastroop,1,11,11,1,1046,1,08_changepurse,08_uprightpiano,8,8,Big-visBig,1,1,
fionastroop,2,13,11,2,2820,1,11_controller,11_fountain13,11,11,Small-visBig,4,2,
fionastroop,1,14,11,2,2292,1,08_uprightpiano,08_changepurse,8,8,Small-visBig,4,2,
fionastroop,1,15,11,1,1127,1,06_cable,06_parthenon,6,6,Big-visBig,1,1,
fionastroop,2,16,11,1,1094,1,14_washingMachine,14_perfume,14,14,Big-visBig,1,1,
fionastroop,2,17,11,1,1078,1,07_grill,07_dice,7,7,Big-visBig,1,1,
fionastroop,1,18,11,2,1266,1,04_tractor11,04_camera,4,4,Small-visBig,4,2,
fionastroop,2,19,11,2,1300,1,17_pinecone,17_hotairballoon2,17,17,Small-visBig,4,2,
fionastroop,1,20,11,1,1097,1,20_ornament,20_wheelchair,20,20,Big-visBig,1,1,
fionastroop,2,21,11,1,1515,1,12_bookcase,12_pencil sharpener 5,12,12,Big-visBig,1,1,
fionastroop,1,22,11,1,1158,1,03_baseball 2,03_sofachair,3,3,Big-visBig,1,1,
fionastroop,2,23,11,2,1229,1,08_changepurse,08_uprightpiano,8,8,Small-visBig,4,2,
fionastroop,1,24,11,2,1033,1,15_couch2,15_scotchtape,15,15,Small-visBig,4,2,
fionastroop,2,25,11,2,1287,1,18_ringbox03,18_hotairballoon,18,18,Small-visBig,4,2,
fionastroop,1,26,11,2,1437,1,20_wheelchair,20_ornament,20,20,Small-visBig,4,2,
fionastroop,1,28,11,1,1162,1,07_dice,07_grill,7,7,Big-visBig,1,1,
fionastroop,2,29,11,1,1476,1,09_armchair,09_mushroom,9,9,Big-visBig,1,1,
fionastroop,1,31,11,2,2312,1,17_hotairballoon2,17_pinecone,17,17,Small-visBig,4,2,
fionastroop,1,32,11,1,1333,1,15_scotchtape,15_couch2,15,15,Big-visBig,1,1,
fionastroop,2,33,11,1,1400,1,20_wheelchair,20_ornament,20,20,Big-visBig,1,1,
fionastroop,2,34,11,2,2287,1,15_scotchtape,15_couch2,15,15,Small-visBig,4,2,
fionastroop,1,35,11,2,2075,1,12_bookcase,12_pencil sharpener 5,12,12,Small-visBig,4,2,
fionastroop,1,36,11,1,1768,1,04_camera,04_tractor11,4,4,Big-visBig,1,1,
fionastroop,1,37,11,1,1317,1,13_rubberduck,13_piano,13,13,Big-visBig,1,1,
fionastroop,2,38,11,1,1215,1,05_wagon,05_button,5,5,Big-visBig,1,1,
fionastroop,1,39,11,2,1101,1,19_refrigerator,19_garlic,19,19,Small-visBig,4,2,
fionastroop,2,40,11,2,1405,1,02_seashell,02_carousel,2,2,Small-visBig,4,2,
fionastroop,2,41,11,1,1268,1,17_hotairballoon2,17_pinecone,17,17,Big-visBig,1,1,
fionastroop,2,42,11,2,1219,1,16_clock,16_garbagecan,16,16,Small-visBig,4,2,
fionastroop,1,43,11,2,1224,1,11_fountain13,11_controller,11,11,Small-visBig,4,2,
fionastroop,1,44,11,1,1552,1,16_clock,16_garbagecan,16,16,Big-visBig,1,1,
fionastroop,1,45,11,1,1286,1,18_ringbox03,18_hotairballoon,18,18,Big-visBig,1,1,
fionastroop,2,46,11,2,1217,1,14_perfume,14_washingMachine,14,14,Small-visBig,4,2,
fionastroop,2,48,11,1,2082,1,19_refrigerator,19_garlic,19,19,Big-visBig,1,1,
fionastroop,2,49,11,2,1380,1,09_mushroom,09_armchair,9,9,Small-visBig,4,2,
fionastroop,1,50,11,2,1447,1,09_armchair,09_mushroom,9,9,Small-visBig,4,2,
fionastroop,1,51,11,1,1365,1,10_bowtiepasta,10_bison,10,10,Big-visBig,1,1,
fionastroop,2,52,11,1,1715,1,08_uprightpiano,08_changepurse,8,8,Big-visBig,1,1,
fionastroop,2,53,11,2,1209,1,06_cable,06_parthenon,6,6,Small-visBig,4,2,
fionastroop,1,54,11,1,1333,1,17_pinecone,17_hotairballoon2,17,17,Big-visBig,1,1,
fionastroop,2,55,11,1,1074,1,03_sofachair,03_baseball 2,3,3,Big-visBig,1,1,
fionastroop,1,56,11,2,1677,1,14_washingMachine,14_perfume,14,14,Small-visBig,4,2,
fionastroop,2,57,11,1,1333,1,15_couch2,15_scotchtape,15,15,Big-visBig,1,1,
fionastroop,1,58,11,2,1281,1,16_garbagecan,16_clock,16,16,Small-visBig,4,2,
fionastroop,1,59,11,1,2344,1,19_garlic,19_refrigerator,19,19,Big-visBig,1,1,
fionastroop,2,60,11,2,1841,1,01_apple,01_desk,1,1,Small-visBig,4,2,
fionastroop,2,61,11,1,1698,1,13_piano,13_rubberduck,13,13,Big-visBig,1,1,
fionastroop,1,62,11,1,1546,1,09_mushroom,09_armchair,9,9,Big-visBig,1,1,
fionastroop,2,63,11,2,2081,1,04_camera,04_tractor11,4,4,Small-visBig,4,2,
fionastroop,1,64,11,2,1302,1,18_hotairballoon,18_ringbox03,18,18,Small-visBig,4,2,
fionastroop,2,65,11,2,1108,1,12_pencil sharpener 5,12_bookcase,12,12,Small-visBig,4,2,
fionastroop,1,66,11,2,1322,1,02_carousel,02_seashell,2,2,Small-visBig,4,2,
fionastroop,2,67,11,1,1925,1,18_hotairballoon,18_ringbox03,18,18,Big-visBig,1,1,
fionastroop,1,68,11,1,1515,1,12_pencil sharpener 5,12_bookcase,12,12,Big-visBig,1,1,
fionastroop,2,69,11,1,1556,1,04_tractor11,04_camera,4,4,Big-visBig,1,1,
fionastroop,2,70,11,2,1306,1,03_baseball 2,03_sofachair,3,3,Small-visBig,4,2,
fionastroop,1,71,11,1,2499,1,11_controller,11_fountain13,11,11,Big-visBig,1,1,
fionastroop,1,72,11,2,1138,1,01_desk,01_apple,1,1,Small-visBig,4,2,
fionastroop,1,73,11,2,1126,1,05_wagon,05_button,5,5,Small-visBig,4,2,
fionastroop,2,74,11,1,1012,1,16_garbagecan,16_clock,16,16,Big-visBig,1,1,
86frddiestroop,2,11,12,2,2316,1,08_changepurse,08_uprightpiano,8,8,Small-visBig,4,2,
86frddiestroop,1,12,12,2,2202,1,04_tractor11,04_camera,4,4,Small-visBig,4,2,
86frddiestroop,1,13,12,1,2615,1,11_controller,11_fountain13,11,11,Big-visBig,1,1,
86frddiestroop,2,17,12,2,2089,1,02_seashell,02_carousel,2,2,Small-visBig,4,2,
86frddiestroop,1,18,12,2,3809,1,08_uprightpiano,08_changepurse,8,8,Small-visBig,4,2,
86frddiestroop,1,19,12,1,2361,1,05_button,05_wagon,5,5,Big-visBig,1,1,
86frddiestroop,2,20,12,1,1633,1,13_piano,13_rubberduck,13,13,Big-visBig,1,1,
86frddiestroop,1,21,12,1,1802,1,13_rubberduck,13_piano,13,13,Big-visBig,1,1,
20sofia36,1,11,13,1,852,1,14_perfume,14_washingMachine,14,14,Big-visBig,1,1,
20sofia36,1,12,13,2,897,1,20_wheelchair,20_ornament,20,20,Small-visBig,4,2,
20sofia36,2,13,13,1,862,1,11_fountain13,11_controller,11,11,Big-visBig,1,1,
20sofia36,1,14,13,2,1035,1,17_hotairballoon2,17_pinecone,17,17,Small-visBig,4,2,
20sofia36,1,15,13,1,917,1,07_dice,07_grill,7,7,Big-visBig,1,1,
20sofia36,2,16,13,2,998,1,02_seashell,02_carousel,2,2,Small-visBig,4,2,
20sofia36,2,17,13,1,813,1,10_bison,10_bowtiepasta,10,10,Big-visBig,1,1,
20sofia36,1,18,13,2,1333,1,03_sofachair,03_baseball 2,3,3,Small-visBig,4,2,
20sofia36,1,19,13,1,717,1,05_button,05_wagon,5,5,Big-visBig,1,1,
20sofia36,2,20,13,2,1166,1,12_pencil sharpener 5,12_bookcase,12,12,Small-visBig,4,2,
20sofia36,2,21,13,1,991,1,12_bookcase,12_pencil sharpener 5,12,12,Big-visBig,1,1,
20sofia36,2,22,13,2,1062,1,20_ornament,20_wheelchair,20,20,Small-visBig,4,2,
20sofia36,1,23,13,2,1008,1,04_tractor11,04_camera,4,4,Small-visBig,4,2,
20sofia36,1,24,13,1,900,1,03_baseball 2,03_sofachair,3,3,Big-visBig,1,1,
20sofia36,2,25,13,2,1748,1,10_bowtiepasta,10_bison,10,10,Small-visBig,4,2,
20sofia36,1,26,13,1,853,1,01_apple,01_desk,1,1,Big-visBig,1,1,
20sofia36,2,27,13,1,998,1,20_wheelchair,20_ornament,20,20,Big-visBig,1,1,
20sofia36,1,28,13,2,1399,1,06_parthenon,06_cable,6,6,Small-visBig,4,2,
20sofia36,1,29,13,2,1549,1,11_fountain13,11_controller,11,11,Small-visBig,4,2,
20sofia36,2,30,13,1,1227,1,07_grill,07_dice,7,7,Big-visBig,1,1,
20sofia36,2,31,13,2,1309,1,13_rubberduck,13_piano,13,13,Small-visBig,4,2,
20sofia36,1,32,13,1,1586,1,04_camera,04_tractor11,4,4,Big-visBig,1,1,
20sofia36,1,33,13,2,1613,1,09_armchair,09_mushroom,9,9,Small-visBig,4,2,
20sofia36,2,34,13,2,1182,1,11_controller,11_fountain13,11,11,Small-visBig,4,2,
20sofia36,2,35,13,1,1012,1,08_uprightpiano,08_changepurse,8,8,Big-visBig,1,1,
20sofia36,1,36,13,1,952,1,17_pinecone,17_hotairballoon2,17,17,Big-visBig,1,1,
20sofia36,1,37,13,2,1332,1,02_carousel,02_seashell,2,2,Small-visBig,4,2,
20sofia36,2,38,13,2,962,1,08_changepurse,08_uprightpiano,8,8,Small-visBig,4,2,
20sofia36,2,40,13,1,997,1,04_tractor11,04_camera,4,4,Big-visBig,1,1,
20sofia36,2,41,13,2,948,1,16_clock,16_garbagecan,16,16,Small-visBig,4,2,
20sofia36,1,42,13,1,1168,1,19_garlic,19_refrigerator,19,19,Big-visBig,1,1,
20sofia36,1,43,13,2,1369,1,05_wagon,05_button,5,5,Small-visBig,4,2,
20sofia36,2,44,13,1,1284,1,19_refrigerator,19_garlic,19,19,Big-visBig,1,1,
20sofia36,2,45,13,1,912,1,09_armchair,09_mushroom,9,9,Big-visBig,1,1,
20sofia36,1,46,13,1,1164,1,02_seashell,02_carousel,2,2,Big-visBig,1,1,
20sofia36,1,47,13,2,1153,1,01_desk,01_apple,1,1,Small-visBig,4,2,
49surya41,2,12,14,1,3619,1,16_garbagecan,16_clock,16,16,Big-visBig,1,1,
49surya41,1,17,14,1,1163,1,09_mushroom,09_armchair,9,9,Big-visBig,1,1,
49surya41,2,18,14,2,2397,1,14_perfume,14_washingMachine,14,14,Small-visBig,4,2,
49surya41,1,19,14,2,1718,1,16_garbagecan,16_clock,16,16,Small-visBig,4,2,
49surya41,2,20,14,1,1713,1,11_fountain13,11_controller,11,11,Big-visBig,1,1,
49surya41,1,21,14,1,1432,1,11_controller,11_fountain13,11,11,Big-visBig,1,1,
49surya41,2,23,14,2,1427,1,10_bowtiepasta,10_bison,10,10,Small-visBig,4,2,
49surya41,1,24,14,2,1045,1,12_bookcase,12_pencil sharpener 5,12,12,Small-visBig,4,2,
49surya41,1,26,14,2,1344,1,19_refrigerator,19_garlic,19,19,Small-visBig,4,2,
49surya41,1,27,14,1,686,1,18_ringbox03,18_hotairballoon,18,18,Big-visBig,1,1,
49surya41,2,29,14,1,3142,1,06_parthenon,06_cable,6,6,Big-visBig,1,1,
49surya41,2,30,14,2,2065,1,08_changepurse,08_uprightpiano,8,8,Small-visBig,4,2,
49surya41,1,31,14,1,955,1,01_apple,01_desk,1,1,Big-visBig,1,1,
49surya41,1,33,14,1,696,1,19_garlic,19_refrigerator,19,19,Big-visBig,1,1,
49surya41,1,35,14,2,1725,1,17_hotairballoon2,17_pinecone,17,17,Small-visBig,4,2,
49surya41,2,36,14,1,1856,1,09_armchair,09_mushroom,9,9,Big-visBig,1,1,
49surya41,1,37,14,2,981,1,09_armchair,09_mushroom,9,9,Small-visBig,4,2,
49surya41,1,39,14,1,1646,1,20_ornament,20_wheelchair,20,20,Big-visBig,1,1,
49surya41,2,40,14,2,1403,1,17_pinecone,17_hotairballoon2,17,17,Small-visBig,4,2,
49surya41,1,44,14,1,1445,1,16_clock,16_garbagecan,16,16,Big-visBig,1,1,
49surya41,1,45,14,1,918,1,03_baseball 2,03_sofachair,3,3,Big-visBig,1,1,
49surya41,2,46,14,2,1498,1,18_ringbox03,18_hotairballoon,18,18,Small-visBig,4,2,
49surya41,1,47,14,2,1322,1,03_sofachair,03_baseball 2,3,3,Small-visBig,4,2,
49surya41,2,48,14,1,2259,1,05_wagon,05_button,5,5,Big-visBig,1,1,
49surya41,2,49,14,2,2021,1,20_ornament,20_wheelchair,20,20,Small-visBig,4,2,
49surya41,1,51,14,2,1463,1,18_hotairballoon,18_ringbox03,18,18,Small-visBig,4,2,
49surya41,2,52,14,1,1483,1,13_piano,13_rubberduck,13,13,Big-visBig,1,1,
49surya41,1,53,14,1,992,1,05_button,05_wagon,5,5,Big-visBig,1,1,
49surya41,2,54,14,1,1451,1,17_hotairballoon2,17_pinecone,17,17,Big-visBig,1,1,
49surya41,2,56,14,2,1067,1,04_camera,04_tractor11,4,4,Small-visBig,4,2,
49surya41,2,57,14,2,3188,1,19_garlic,19_refrigerator,19,19,Small-visBig,4,2,
49surya41,1,58,14,2,936,1,01_desk,01_apple,1,1,Small-visBig,4,2,
49surya41,1,59,14,1,1051,1,15_scotchtape,15_couch2,15,15,Big-visBig,1,1,
49surya41,2,60,14,1,1435,1,19_refrigerator,19_garlic,19,19,Big-visBig,1,1,
49surya41,1,63,14,1,1149,1,10_bowtiepasta,10_bison,10,10,Big-visBig,1,1,
49surya41,1,65,14,1,1162,1,02_seashell,02_carousel,2,2,Big-visBig,1,1,
49surya41,2,66,14,1,1219,1,03_sofachair,03_baseball 2,3,3,Big-visBig,1,1,
49surya41,1,67,14,2,2066,1,06_parthenon,06_cable,6,6,Small-visBig,4,2,
49surya41,2,68,14,2,1725,1,07_dice,07_grill,7,7,Small-visBig,4,2,
49surya41,1,69,14,2,1402,1,20_wheelchair,20_ornament,20,20,Small-visBig,4,2,
49surya41,1,70,14,1,1596,1,07_dice,07_grill,7,7,Big-visBig,1,1,
49surya41,2,71,14,2,1699,1,12_pencil sharpener 5,12_bookcase,12,12,Small-visBig,4,2,
49surya41,1,73,14,2,1369,1,04_tractor11,04_camera,4,4,Small-visBig,4,2,
49surya41,2,74,14,2,2201,1,15_scotchtape,15_couch2,15,15,Small-visBig,4,2,
49surya41,1,75,14,1,1206,1,13_rubberduck,13_piano,13,13,Big-visBig,1,1,
49surya41,2,76,14,1,1556,1,12_bookcase,12_pencil sharpener 5,12,12,Big-visBig,1,1,
49surya41,2,77,14,1,2278,1,18_hotairballoon,18_ringbox03,18,18,Big-visBig,1,1,
49surya41,2,78,14,2,2806,1,02_seashell,02_carousel,2,2,Small-visBig,4,2,
49surya41,1,79,14,2,2772,1,08_uprightpiano,08_changepurse,8,8,Small-visBig,4,2,
49surya41,1,80,14,1,1100,1,12_pencil sharpener 5,12_bookcase,12,12,Big-visBig,1,1,
51emma40,2,11,15,1,2848,1,08_uprightpiano,08_changepurse,8,8,Big-visBig,1,1,
51emma40,1,13,15,1,2393,1,16_clock,16_garbagecan,16,16,Big-visBig,1,1,
51emma40,2,14,15,2,1750,1,13_rubberduck,13_piano,13,13,Small-visBig,4,2,
51emma40,2,15,15,1,1641,1,03_sofachair,03_baseball 2,3,3,Big-visBig,1,1,
51emma40,1,16,15,2,2486,1,09_armchair,09_mushroom,9,9,Small-visBig,4,2,
51emma40,2,17,15,1,3440,1,10_bison,10_bowtiepasta,10,10,Big-visBig,1,1,
51emma40,1,18,15,2,1704,1,06_parthenon,06_cable,6,6,Small-visBig,4,2,
51emma40,1,19,15,1,3306,1,01_apple,01_desk,1,1,Big-visBig,1,1,
51emma40,2,20,15,2,2129,1,12_pencil sharpener 5,12_bookcase,12,12,Small-visBig,4,2,
51emma40,1,21,15,2,2661,1,04_tractor11,04_camera,4,4,Small-visBig,4,2,
51emma40,2,22,15,1,2302,1,18_hotairballoon,18_ringbox03,18,18,Big-visBig,1,1,
51emma40,1,23,15,1,1682,1,11_controller,11_fountain13,11,11,Big-visBig,1,1,
51emma40,2,24,15,2,2616,1,10_bowtiepasta,10_bison,10,10,Small-visBig,4,2,
51emma40,2,25,15,1,1956,1,01_desk,01_apple,1,1,Big-visBig,1,1,
51emma40,2,26,15,2,1927,1,16_clock,16_garbagecan,16,16,Small-visBig,4,2,
51emma40,1,27,15,2,2269,1,16_garbagecan,16_clock,16,16,Small-visBig,4,2,
51emma40,1,28,15,1,2568,1,09_mushroom,09_armchair,9,9,Big-visBig,1,1,
51emma40,1,29,15,1,1257,1,03_baseball 2,03_sofachair,3,3,Big-visBig,1,1,
51emma40,2,30,15,1,2034,1,07_grill,07_dice,7,7,Big-visBig,1,1,
51emma40,1,31,15,2,1731,1,15_couch2,15_scotchtape,15,15,Small-visBig,4,2,
51emma40,2,32,15,2,2059,1,04_camera,04_tractor11,4,4,Small-visBig,4,2,
51emma40,1,33,15,2,1972,1,14_washingMachine,14_perfume,14,14,Small-visBig,4,2,
51emma40,2,34,15,1,1458,1,11_fountain13,11_controller,11,11,Big-visBig,1,1,
51emma40,1,39,15,2,1630,1,08_uprightpiano,08_changepurse,8,8,Small-visBig,4,2,
51emma40,2,40,15,1,3093,1,12_bookcase,12_pencil sharpener 5,12,12,Big-visBig,1,1,
51emma40,1,41,15,1,2385,1,17_pinecone,17_hotairballoon2,17,17,Big-visBig,1,1,
51emma40,2,42,15,2,2467,1,18_ringbox03,18_hotairballoon,18,18,Small-visBig,4,2,
51emma40,1,43,15,2,1748,1,02_carousel,02_seashell,2,2,Small-visBig,4,2,
51emma40,2,44,15,1,1699,1,15_couch2,15_scotchtape,15,15,Big-visBig,1,1,
51emma40,1,45,15,1,1481,1,12_pencil sharpener 5,12_bookcase,12,12,Big-visBig,1,1,
51emma40,2,46,15,1,1117,1,19_refrigerator,19_garlic,19,19,Big-visBig,1,1,
51emma40,1,47,15,2,2607,1,05_wagon,05_button,5,5,Small-visBig,4,2,
51emma40,2,48,15,2,2109,1,06_cable,06_parthenon,6,6,Small-visBig,4,2,
51emma40,2,50,15,2,2305,1,03_baseball 2,03_sofachair,3,3,Small-visBig,4,2,
51emma40,2,51,15,1,2819,1,05_wagon,05_button,5,5,Big-visBig,1,1,
51emma40,1,52,15,1,1162,1,07_dice,07_grill,7,7,Big-visBig,1,1,
51emma40,1,53,15,2,801,1,12_bookcase,12_pencil sharpener 5,12,12,Small-visBig,4,2,
51emma40,1,54,15,1,3619,1,08_changepurse,08_uprightpiano,8,8,Big-visBig,1,1,
51emma40,2,55,15,1,1770,1,17_hotairballoon2,17_pinecone,17,17,Big-visBig,1,1,
51emma40,2,56,15,2,2197,1,07_dice,07_grill,7,7,Small-visBig,4,2,
51emma40,2,57,15,1,2227,1,06_parthenon,06_cable,6,6,Big-visBig,1,1,
51emma40,1,58,15,1,3936,1,02_seashell,02_carousel,2,2,Big-visBig,1,1,
51emma40,1,59,15,2,1714,1,18_hotairballoon,18_ringbox03,18,18,Small-visBig,4,2,
51emma40,2,60,15,2,3277,1,19_garlic,19_refrigerator,19,19,Small-visBig,4,2,
51emma40,2,61,15,2,1744,1,17_pinecone,17_hotairballoon2,17,17,Small-visBig,4,2,
51emma40,1,62,15,1,1933,1,13_rubberduck,13_piano,13,13,Big-visBig,1,1,
51emma40,1,63,15,2,1564,1,11_fountain13,11_controller,11,11,Small-visBig,4,2,
51emma40,2,64,15,1,1280,1,16_garbagecan,16_clock,16,16,Big-visBig,1,1,
51emma40,1,65,15,1,1162,1,19_garlic,19_refrigerator,19,19,Big-visBig,1,1,
51emma40,1,66,15,2,2535,1,03_sofachair,03_baseball 2,3,3,Small-visBig,4,2,
51emma40,2,67,15,2,1363,1,20_ornament,20_wheelchair,20,20,Small-visBig,4,2,
51emma40,2,68,15,1,1886,1,02_carousel,02_seashell,2,2,Big-visBig,1,1,
51emma40,2,69,15,2,2355,1,09_mushroom,09_armchair,9,9,Small-visBig,4,2,
51emma40,2,70,15,1,1427,1,14_washingMachine,14_perfume,14,14,Big-visBig,1,1,
51emma40,1,71,15,2,2771,1,07_grill,07_dice,7,7,Small-visBig,4,2,
51emma40,1,72,15,1,2327,1,14_perfume,14_washingMachine,14,14,Big-visBig,1,1,
51emma40,2,73,15,2,1449,1,05_button,05_wagon,5,5,Small-visBig,4,2,
51emma40,1,74,15,2,1929,1,17_hotairballoon2,17_pinecone,17,17,Small-visBig,4,2,
51emma40,1,75,15,1,2103,1,04_camera,04_tractor11,4,4,Big-visBig,1,1,
51emma40,2,76,15,1,1851,1,20_wheelchair,20_ornament,20,20,Big-visBig,1,1,
51emma40,2,77,15,2,3212,1,14_perfume,14_washingMachine,14,14,Small-visBig,4,2,
51emma40,2,78,15,1,1319,1,04_tractor11,04_camera,4,4,Big-visBig,1,1,
51emma40,1,79,15,2,2920,1,19_refrigerator,19_garlic,19,19,Small-visBig,4,2,
51emma40,1,80,15,1,1450,1,10_bowtiepasta,10_bison,10,10,Big-visBig,1,1,
86frddiestroop,2,11,16,2,2316,1,08_changepurse,08_uprightpiano,8,8,Small-visBig,4,2,
86frddiestroop,1,12,16,2,2202,1,04_tractor11,04_camera,4,4,Small-visBig,4,2,
86frddiestroop,1,13,16,1,2615,1,11_controller,11_fountain13,11,11,Big-visBig,1,1,
86frddiestroop,2,17,16,2,2089,1,02_seashell,02_carousel,2,2,Small-visBig,4,2,
86frddiestroop,1,18,16,2,3809,1,08_uprightpiano,08_changepurse,8,8,Small-visBig,4,2,
86frddiestroop,1,19,16,1,2361,1,05_button,05_wagon,5,5,Big-visBig,1,1,
86frddiestroop,2,20,16,1,1633,1,13_piano,13_rubberduck,13,13,Big-visBig,1,1,
86frddiestroop,1,21,16,1,1802,1,13_rubberduck,13_piano,13,13,Big-visBig,1,1,
18milisecondtry,2,11,17,2,2825,1,17_pinecone,17_hotairballoon2,17,17,Small-visBig,4,2,
18milisecondtry,2,12,17,1,2444,1,12_bookcase,12_pencil sharpener 5,12,12,Big-visBig,1,1,
18milisecondtry,1,13,17,2,1581,1,16_garbagecan,16_clock,16,16,Small-visBig,4,2,
18milisecondtry,2,14,17,2,1336,1,20_ornament,20_wheelchair,20,20,Small-visBig,4,2,
18milisecondtry,1,15,17,1,1650,1,12_pencil sharpener 5,12_bookcase,12,12,Big-visBig,1,1,
21oliver36,2,11,18,1,2382,1,04_tractor11,04_camera,4,4,Big-visBig,1,1,
21oliver36,2,13,18,2,604,1,01_apple,01_desk,1,1,Small-visBig,4,2,
21oliver36,2,14,18,1,1207,1,03_sofachair,03_baseball 2,3,3,Big-visBig,1,1,
21oliver36,1,15,18,1,1180,1,12_pencil sharpener 5,12_bookcase,12,12,Big-visBig,1,1,
21oliver36,1,20,18,1,3345,1,11_controller,11_fountain13,11,11,Big-visBig,1,1,
21oliver36,2,23,18,1,2149,1,01_desk,01_apple,1,1,Big-visBig,1,1,
30michael36,2,11,19,1,1220,1,01_desk,01_apple,1,1,Big-visBig,1,1,
30michael36,1,13,19,2,1514,1,01_desk,01_apple,1,1,Small-visBig,4,2,
30michael36,1,14,19,1,1317,1,16_clock,16_garbagecan,16,16,Big-visBig,1,1,
30michael36,2,15,19,1,999,1,12_bookcase,12_pencil sharpener 5,12,12,Big-visBig,1,1,
30michael36,2,16,19,2,1000,1,18_ringbox03,18_hotairballoon,18,18,Small-visBig,4,2,
30michael36,1,20,19,2,1052,1,05_wagon,05_button,5,5,Small-visBig,4,2,
30michael36,2,21,19,1,934,1,20_wheelchair,20_ornament,20,20,Big-visBig,1,1,
30michael36,2,22,19,2,1091,1,10_bowtiepasta,10_bison,10,10,Small-visBig,4,2,
30michael36,2,26,19,2,705,1,08_changepurse,08_uprightpiano,8,8,Small-visBig,4,2,
30michael36,1,27,19,1,1614,1,12_pencil sharpener 5,12_bookcase,12,12,Big-visBig,1,1,
30michael36,1,29,19,1,950,1,03_baseball 2,03_sofachair,3,3,Big-visBig,1,1,
30michael36,1,30,19,2,1601,1,14_washingMachine,14_perfume,14,14,Small-visBig,4,2,
30michael36,2,32,19,1,762,1,18_hotairballoon,18_ringbox03,18,18,Big-visBig,1,1,
30michael36,1,35,19,2,932,1,02_carousel,02_seashell,2,2,Small-visBig,4,2,
30michael36,2,36,19,1,1384,1,05_wagon,05_button,5,5,Big-visBig,1,1,
30michael36,2,38,19,1,2107,1,04_tractor11,04_camera,4,4,Big-visBig,1,1,
30michael36,1,39,19,2,1246,1,20_wheelchair,20_ornament,20,20,Small-visBig,4,2,
30michael36,1,41,19,1,923,1,10_bowtiepasta,10_bison,10,10,Big-visBig,1,1,
30michael36,2,43,19,1,1341,1,10_bison,10_bowtiepasta,10,10,Big-visBig,1,1,
30michael36,2,44,19,2,984,1,03_baseball 2,03_sofachair,3,3,Small-visBig,4,2,
30michael36,1,46,19,1,1640,1,09_mushroom,09_armchair,9,9,Big-visBig,1,1,
30michael36,2,47,19,1,1203,1,09_armchair,09_mushroom,9,9,Big-visBig,1,1,
30michael36,1,48,19,2,1772,1,16_garbagecan,16_clock,16,16,Small-visBig,4,2,
30michael36,1,49,19,1,2032,1,11_controller,11_fountain13,11,11,Big-visBig,1,1,
94eloisestroop,1,11,20,2,1823,1,09_armchair,09_mushroom,9,9,Small-visBig,4,2,
94eloisestroop,1,12,20,1,1843,1,12_pencil sharpener 5,12_bookcase,12,12,Big-visBig,1,1,
94eloisestroop,1,13,20,2,1791,1,10_bison,10_bowtiepasta,10,10,Small-visBig,4,2,
94eloisestroop,2,14,20,1,1764,1,08_uprightpiano,08_changepurse,8,8,Big-visBig,1,1,
94eloisestroop,2,15,20,2,1710,1,07_dice,07_grill,7,7,Small-visBig,4,2,
94eloisestroop,1,16,20,1,2141,1,15_scotchtape,15_couch2,15,15,Big-visBig,1,1,
94eloisestroop,1,17,20,1,2406,1,03_baseball 2,03_sofachair,3,3,Big-visBig,1,1,
94eloisestroop,1,18,20,2,2140,1,03_sofachair,03_baseball 2,3,3,Small-visBig,4,2,
94eloisestroop,2,19,20,2,1469,1,17_pinecone,17_hotairballoon2,17,17,Small-visBig,4,2,
94eloisestroop,2,20,20,1,1403,1,20_wheelchair,20_ornament,20,20,Big-visBig,1,1,
94eloisestroop,2,21,20,2,1254,1,03_baseball 2,03_sofachair,3,3,Small-visBig,4,2,
94eloisestroop,2,22,20,1,3572,1,17_hotairballoon2,17_pinecone,17,17,Big-visBig,1,1,
94eloisestroop,1,23,20,1,2026,1,10_bowtiepasta,10_bison,10,10,Big-visBig,1,1,
94eloisestroop,1,24,20,2,1690,1,07_grill,07_dice,7,7,Small-visBig,4,2,
94eloisestroop,1,25,20,2,2393,1,13_piano,13_rubberduck,13,13,Small-visBig,4,2,
94eloisestroop,2,26,20,2,2401,1,20_ornament,20_wheelchair,20,20,Small-visBig,4,2,
94eloisestroop,1,27,20,1,1508,1,13_rubberduck,13_piano,13,13,Big-visBig,1,1,
94eloisestroop,2,28,20,1,3104,1,12_bookcase,12_pencil sharpener 5,12,12,Big-visBig,1,1,
94eloisestroop,2,29,20,2,1803,1,02_seashell,02_carousel,2,2,Small-visBig,4,2,
94eloisestroop,1,30,20,1,2197,1,16_clock,16_garbagecan,16,16,Big-visBig,1,1,
94eloisestroop,2,31,20,1,1791,1,10_bison,10_bowtiepasta,10,10,Big-visBig,1,1,
94eloisestroop,1,32,20,2,1359,1,17_hotairballoon2,17_pinecone,17,17,Small-visBig,4,2,
94eloisestroop,2,33,20,1,1497,1,03_sofachair,03_baseball 2,3,3,Big-visBig,1,1,
94eloisestroop,1,34,20,2,2549,1,01_desk,01_apple,1,1,Small-visBig,4,2,
94eloisestroop,1,35,20,1,2123,1,06_cable,06_parthenon,6,6,Big-visBig,1,1,
94eloisestroop,2,36,20,2,1517,1,13_rubberduck,13_piano,13,13,Small-visBig,4,2,
94eloisestroop,2,37,20,2,2460,1,11_controller,11_fountain13,11,11,Small-visBig,4,2,
94eloisestroop,2,38,20,1,2763,1,16_garbagecan,16_clock,16,16,Big-visBig,1,1,
94eloisestroop,1,39,20,2,2002,1,19_refrigerator,19_garlic,19,19,Small-visBig,4,2,
94eloisestroop,1,40,20,1,2697,1,18_ringbox03,18_hotairballoon,18,18,Big-visBig,1,1,
94eloisestroop,2,41,20,1,1487,1,19_refrigerator,19_garlic,19,19,Big-visBig,1,1,
94eloisestroop,2,42,20,2,1208,1,08_changepurse,08_uprightpiano,8,8,Small-visBig,4,2,
94eloisestroop,1,43,20,1,1369,1,20_ornament,20_wheelchair,20,20,Big-visBig,1,1,
94eloisestroop,1,44,20,2,1268,1,15_couch2,15_scotchtape,15,15,Small-visBig,4,2,
94eloisestroop,2,45,20,2,3196,1,15_scotchtape,15_couch2,15,15,Small-visBig,4,2,
94eloisestroop,2,46,20,1,1890,1,11_fountain13,11_controller,11,11,Big-visBig,1,1,
94eloisestroop,1,47,20,1,3044,1,07_dice,07_grill,7,7,Big-visBig,1,1,
94eloisestroop,1,48,20,2,2111,1,20_wheelchair,20_ornament,20,20,Small-visBig,4,2,
94eloisestroop,1,49,20,1,2307,1,11_controller,11_fountain13,11,11,Big-visBig,1,1,
94eloisestroop,1,50,20,2,1857,1,18_hotairballoon,18_ringbox03,18,18,Small-visBig,4,2,
94eloisestroop,2,51,20,2,2180,1,05_button,05_wagon,5,5,Small-visBig,4,2,
94eloisestroop,2,52,20,1,2355,1,09_armchair,09_mushroom,9,9,Big-visBig,1,1,
94eloisestroop,2,53,20,2,1501,1,19_garlic,19_refrigerator,19,19,Small-visBig,4,2,
94eloisestroop,1,54,20,2,1519,1,05_wagon,05_button,5,5,Small-visBig,4,2,
94eloisestroop,2,55,20,1,1601,1,18_hotairballoon,18_ringbox03,18,18,Big-visBig,1,1,
94eloisestroop,1,56,20,1,1281,1,09_mushroom,09_armchair,9,9,Big-visBig,1,1,
94eloisestroop,1,58,20,1,2088,1,08_changepurse,08_uprightpiano,8,8,Big-visBig,1,1,
94eloisestroop,2,59,20,2,1670,1,10_bowtiepasta,10_bison,10,10,Small-visBig,4,2,
94eloisestroop,2,60,20,1,2968,1,14_washingMachine,14_perfume,14,14,Big-visBig,1,1,
94eloisestroop,2,61,20,2,1577,1,06_cable,06_parthenon,6,6,Small-visBig,4,2,
94eloisestroop,1,62,20,2,1894,1,14_washingMachine,14_perfume,14,14,Small-visBig,4,2,
94eloisestroop,1,63,20,1,1548,1,17_pinecone,17_hotairballoon2,17,17,Big-visBig,1,1,
94eloisestroop,2,64,20,1,2139,1,07_grill,07_dice,7,7,Big-visBig,1,1,
94eloisestroop,1,65,20,2,1850,1,16_garbagecan,16_clock,16,16,Small-visBig,4,2,
94eloisestroop,1,66,20,1,2273,1,01_apple,01_desk,1,1,Big-visBig,1,1,
94eloisestroop,2,67,20,2,1435,1,01_apple,01_desk,1,1,Small-visBig,4,2,
94eloisestroop,2,68,20,1,1366,1,13_piano,13_rubberduck,13,13,Big-visBig,1,1,
94eloisestroop,1,69,20,1,1301,1,14_perfume,14_washingMachine,14,14,Big-visBig,1,1,
94eloisestroop,2,70,20,2,1183,1,12_pencil sharpener 5,12_bookcase,12,12,Small-visBig,4,2,
94eloisestroop,1,71,20,2,1550,1,12_bookcase,12_pencil sharpener 5,12,12,Small-visBig,4,2,
94eloisestroop,2,72,20,1,1977,1,02_carousel,02_seashell,2,2,Big-visBig,1,1,
94eloisestroop,1,73,20,2,2735,1,02_carousel,02_seashell,2,2,Small-visBig,4,2,
11cayden36,1,12,21,1,1694,1,05_button,05_wagon,5,5,Big-visBig,1,1,
11cayden36,1,13,21,1,1841,1,12_pencil sharpener 5,12_bookcase,12,12,Big-visBig,1,1,
11cayden36,1,14,21,2,1070,1,18_hotairballoon,18_ringbox03,18,18,Small-visBig,4,2,
11cayden36,2,15,21,2,3532,1,12_pencil sharpener 5,12_bookcase,12,12,Small-visBig,4,2,
11cayden36,1,18,21,2,2600,1,10_bison,10_bowtiepasta,10,10,Small-visBig,4,2,
11cayden36,1,20,21,1,2264,1,13_rubberduck,13_piano,13,13,Big-visBig,1,1,
11cayden36,1,22,21,2,3216,1,11_fountain13,11_controller,11,11,Small-visBig,4,2,
06ninastroop440,1,12,22,2,3951,1,12_bookcase,12_pencil sharpener 5,12,12,Small-visBig,4,2,
06ninastroop440,1,14,22,1,3679,1,04_camera,04_tractor11,4,4,Big-visBig,1,1,
06ninastroop440,1,15,22,2,3773,1,01_desk,01_apple,1,1,Small-visBig,4,2,
06ninastroop440,2,18,22,2,3743,1,19_garlic,19_refrigerator,19,19,Small-visBig,4,2,
06ninastroop440,2,21,22,2,1813,1,17_pinecone,17_hotairballoon2,17,17,Small-visBig,4,2,
06ninastroop440,2,22,22,1,2676,1,13_piano,13_rubberduck,13,13,Big-visBig,1,1,
06ninastroop440,1,23,22,2,3518,1,06_parthenon,06_cable,6,6,Small-visBig,4,2,
06ninastroop440,1,24,22,1,3383,1,06_cable,06_parthenon,6,6,Big-visBig,1,1,
06ninastroop440,2,25,22,1,3445,1,05_wagon,05_button,5,5,Big-visBig,1,1,
06ninastroop440,2,28,22,2,2270,1,04_camera,04_tractor11,4,4,Small-visBig,4,2,
06ninastroop440,2,29,22,2,2429,1,16_clock,16_garbagecan,16,16,Small-visBig,4,2,
06ninastroop440,1,30,22,1,2998,1,07_dice,07_grill,7,7,Big-visBig,1,1,
06ninastroop440,1,31,22,2,2908,1,11_fountain13,11_controller,11,11,Small-visBig,4,2,
06ninastroop440,2,34,22,1,3795,1,20_wheelchair,20_ornament,20,20,Big-visBig,1,1,
06ninastroop440,2,35,22,2,2465,1,15_scotchtape,15_couch2,15,15,Small-visBig,4,2,
06ninastroop440,1,36,22,1,3252,1,02_seashell,02_carousel,2,2,Big-visBig,1,1,
06ninastroop440,2,37,22,2,3045,1,13_rubberduck,13_piano,13,13,Small-visBig,4,2,
06ninastroop440,1,39,22,2,2774,1,02_carousel,02_seashell,2,2,Small-visBig,4,2,
06ninastroop440,2,40,22,1,3432,1,01_desk,01_apple,1,1,Big-visBig,1,1,
06ninastroop440,2,41,22,1,3437,1,06_parthenon,06_cable,6,6,Big-visBig,1,1,
06ninastroop440,1,42,22,2,2319,1,03_sofachair,03_baseball 2,3,3,Small-visBig,4,2,
06ninastroop440,1,43,22,1,2292,1,13_rubberduck,13_piano,13,13,Big-visBig,1,1,
06ninastroop440,2,45,22,2,3497,1,08_changepurse,08_uprightpiano,8,8,Small-visBig,4,2,
06ninastroop440,2,46,22,1,2918,1,10_bison,10_bowtiepasta,10,10,Big-visBig,1,1,
06ninastroop440,1,47,22,1,3689,1,17_pinecone,17_hotairballoon2,17,17,Big-visBig,1,1,
06ninastroop440,1,49,22,2,1381,1,20_wheelchair,20_ornament,20,20,Small-visBig,4,2,
06ninastroop440,2,50,22,1,2640,1,04_tractor11,04_camera,4,4,Big-visBig,1,1,
06ninastroop440,2,51,22,2,1674,1,12_pencil sharpener 5,12_bookcase,12,12,Small-visBig,4,2,
06ninastroop440,1,52,22,1,2448,1,14_perfume,14_washingMachine,14,14,Big-visBig,1,1,
06ninastroop440,2,53,22,1,1459,1,18_hotairballoon,18_ringbox03,18,18,Big-visBig,1,1,
06ninastroop440,2,54,22,2,3221,1,01_apple,01_desk,1,1,Small-visBig,4,2,
06ninastroop440,1,55,22,2,2030,1,18_hotairballoon,18_ringbox03,18,18,Small-visBig,4,2,
06ninastroop440,1,56,22,1,2346,1,19_garlic,19_refrigerator,19,19,Big-visBig,1,1,
06ninastroop440,2,57,22,1,3402,1,19_refrigerator,19_garlic,19,19,Big-visBig,1,1,
06ninastroop440,2,58,22,2,2049,1,14_perfume,14_washingMachine,14,14,Small-visBig,4,2,
06ninastroop440,1,59,22,2,2308,1,15_couch2,15_scotchtape,15,15,Small-visBig,4,2,
06ninastroop440,1,60,22,1,2348,1,10_bowtiepasta,10_bison,10,10,Big-visBig,1,1,
06ninastroop440,1,61,22,1,1988,1,01_apple,01_desk,1,1,Big-visBig,1,1,
06ninastroop440,2,62,22,1,3556,1,14_washingMachine,14_perfume,14,14,Big-visBig,1,1,
06ninastroop440,2,63,22,2,3165,1,03_baseball 2,03_sofachair,3,3,Small-visBig,4,2,
06ninastroop440,1,64,22,2,2443,1,08_uprightpiano,08_changepurse,8,8,Small-visBig,4,2,
06ninastroop440,1,65,22,1,2692,1,09_mushroom,09_armchair,9,9,Big-visBig,1,1,
06ninastroop440,2,66,22,1,3677,1,09_armchair,09_mushroom,9,9,Big-visBig,1,1,
06ninastroop440,1,67,22,2,2457,1,04_tractor11,04_camera,4,4,Small-visBig,4,2,
06ninastroop440,2,68,22,2,3537,1,10_bowtiepasta,10_bison,10,10,Small-visBig,4,2,
06ninastroop440,1,69,22,1,1671,1,03_baseball 2,03_sofachair,3,3,Big-visBig,1,1,
06ninastroop440,1,70,22,2,1978,1,09_armchair,09_mushroom,9,9,Small-visBig,4,2,
06ninastroop440,2,71,22,2,1522,1,02_seashell,02_carousel,2,2,Small-visBig,4,2,
06ninastroop440,2,72,22,1,2833,1,16_garbagecan,16_clock,16,16,Big-visBig,1,1,
06ninastroop440,1,73,22,2,2689,1,16_garbagecan,16_clock,16,16,Small-visBig,4,2,
06ninastroop440,1,74,22,1,1646,1,08_changepurse,08_uprightpiano,8,8,Big-visBig,1,1,
06ninastroop440,2,75,22,1,2260,1,03_sofachair,03_baseball 2,3,3,Big-visBig,1,1,
06ninastroop440,2,76,22,2,1717,1,05_button,05_wagon,5,5,Small-visBig,4,2,
06ninastroop440,2,77,22,1,2489,1,15_couch2,15_scotchtape,15,15,Big-visBig,1,1,
06ninastroop440,1,78,22,1,3841,1,05_button,05_wagon,5,5,Big-visBig,1,1,
06ninastroop440,1,79,22,2,2672,1,10_bison,10_bowtiepasta,10,10,Small-visBig,4,2,
06ninastroop440,2,80,22,2,1849,1,11_controller,11_fountain13,11,11,Small-visBig,4,2,
1alissa48stroop,1,11,23,1,1148,1,11_controller,11_fountain13,11,11,Big-visBig,1,1,
1alissa48stroop,2,12,23,1,2320,1,14_washingMachine,14_perfume,14,14,Big-visBig,1,1,
1alissa48stroop,2,13,23,2,2234,1,19_garlic,19_refrigerator,19,19,Small-visBig,4,2,
1alissa48stroop,1,15,23,1,2853,1,04_camera,04_tractor11,4,4,Big-visBig,1,1,
1alissa48stroop,2,16,23,1,3439,1,11_fountain13,11_controller,11,11,Big-visBig,1,1,
1alissa48stroop,1,17,23,1,1738,1,15_scotchtape,15_couch2,15,15,Big-visBig,1,1,
1alissa48stroop,2,19,23,2,1692,1,11_controller,11_fountain13,11,11,Small-visBig,4,2,
1alissa48stroop,1,20,23,2,1623,1,02_carousel,02_seashell,2,2,Small-visBig,4,2,
1alissa48stroop,2,21,23,2,3010,1,18_ringbox03,18_hotairballoon,18,18,Small-visBig,4,2,
1alissa48stroop,1,22,23,1,1360,1,06_cable,06_parthenon,6,6,Big-visBig,1,1,
1alissa48stroop,2,23,23,1,1978,1,03_sofachair,03_baseball 2,3,3,Big-visBig,1,1,
1alissa48stroop,1,24,23,2,1316,1,11_fountain13,11_controller,11,11,Small-visBig,4,2,
1alissa48stroop,1,26,23,2,1286,1,04_tractor11,04_camera,4,4,Small-visBig,4,2,
1alissa48stroop,1,27,23,1,1319,1,16_clock,16_garbagecan,16,16,Big-visBig,1,1,
1alissa48stroop,2,28,23,2,1542,1,04_camera,04_tractor11,4,4,Small-visBig,4,2,
1alissa48stroop,2,29,23,2,2156,1,17_pinecone,17_hotairballoon2,17,17,Small-visBig,4,2,
1alissa48stroop,2,30,23,1,1377,1,15_couch2,15_scotchtape,15,15,Big-visBig,1,1,
1alissa48stroop,1,31,23,1,1290,1,03_baseball 2,03_sofachair,3,3,Big-visBig,1,1,
1alissa48stroop,1,32,23,2,1970,1,07_grill,07_dice,7,7,Small-visBig,4,2,
1alissa48stroop,1,33,23,2,1736,1,20_wheelchair,20_ornament,20,20,Small-visBig,4,2,
1alissa48stroop,2,34,23,1,2037,1,20_wheelchair,20_ornament,20,20,Big-visBig,1,1,
1alissa48stroop,2,35,23,2,1649,1,12_pencil sharpener 5,12_bookcase,12,12,Small-visBig,4,2,
1alissa48stroop,1,36,23,1,1713,1,10_bowtiepasta,10_bison,10,10,Big-visBig,1,1,
1alissa48stroop,2,38,23,2,1682,1,09_mushroom,09_armchair,9,9,Small-visBig,4,2,
1alissa48stroop,1,39,23,1,2703,1,09_mushroom,09_armchair,9,9,Big-visBig,1,1,
1alissa48stroop,1,41,23,2,1354,1,06_parthenon,06_cable,6,6,Small-visBig,4,2,
1alissa48stroop,2,42,23,1,2160,1,04_tractor11,04_camera,4,4,Big-visBig,1,1,
1alissa48stroop,2,43,23,2,2298,1,20_ornament,20_wheelchair,20,20,Small-visBig,4,2,
1alissa48stroop,1,44,23,1,1699,1,02_seashell,02_carousel,2,2,Big-visBig,1,1,
1alissa48stroop,2,45,23,1,3163,1,13_piano,13_rubberduck,13,13,Big-visBig,1,1,
1alissa48stroop,1,46,23,1,1478,1,07_dice,07_grill,7,7,Big-visBig,1,1,
1alissa48stroop,1,47,23,2,1728,1,18_hotairballoon,18_ringbox03,18,18,Small-visBig,4,2,
1alissa48stroop,2,49,23,2,2835,1,13_rubberduck,13_piano,13,13,Small-visBig,4,2,
1alissa48stroop,1,50,23,1,1481,1,17_pinecone,17_hotairballoon2,17,17,Big-visBig,1,1,
1alissa48stroop,1,52,23,2,1320,1,01_desk,01_apple,1,1,Small-visBig,4,2,
1alissa48stroop,1,53,23,1,3575,1,18_ringbox03,18_hotairballoon,18,18,Big-visBig,1,1,
1alissa48stroop,2,54,23,2,1247,1,01_apple,01_desk,1,1,Small-visBig,4,2,
1alissa48stroop,1,55,23,2,1927,1,19_refrigerator,19_garlic,19,19,Small-visBig,4,2,
1alissa48stroop,2,56,23,1,1333,1,16_garbagecan,16_clock,16,16,Big-visBig,1,1,
1alissa48stroop,2,58,23,1,3670,1,07_grill,07_dice,7,7,Big-visBig,1,1,
1alissa48stroop,1,59,23,1,2686,1,19_garlic,19_refrigerator,19,19,Big-visBig,1,1,
1alissa48stroop,2,61,23,1,1757,1,10_bison,10_bowtiepasta,10,10,Big-visBig,1,1,
1alissa48stroop,2,62,23,2,2445,1,06_cable,06_parthenon,6,6,Small-visBig,4,2,
1alissa48stroop,1,63,23,2,1811,1,17_hotairballoon2,17_pinecone,17,17,Small-visBig,4,2,
1alissa48stroop,1,64,23,1,2711,1,05_button,05_wagon,5,5,Big-visBig,1,1,
1alissa48stroop,2,65,23,1,2021,1,01_desk,01_apple,1,1,Big-visBig,1,1,
1alissa48stroop,2,66,23,2,2023,1,14_perfume,14_washingMachine,14,14,Small-visBig,4,2,
1alissa48stroop,1,67,23,1,2273,1,12_pencil sharpener 5,12_bookcase,12,12,Big-visBig,1,1,
1alissa48stroop,1,68,23,2,1267,1,14_washingMachine,14_perfume,14,14,Small-visBig,4,2,
1alissa48stroop,1,69,23,2,1216,1,12_bookcase,12_pencil sharpener 5,12,12,Small-visBig,4,2,
1alissa48stroop,2,70,23,1,1092,1,17_hotairballoon2,17_pinecone,17,17,Big-visBig,1,1,
1alissa48stroop,1,72,23,1,1720,1,08_changepurse,08_uprightpiano,8,8,Big-visBig,1,1,
1alissa48stroop,1,73,23,1,1543,1,13_rubberduck,13_piano,13,13,Big-visBig,1,1,
1alissa48stroop,1,74,23,2,1594,1,16_garbagecan,16_clock,16,16,Small-visBig,4,2,
1alissa48stroop,2,75,23,1,1796,1,19_refrigerator,19_garlic,19,19,Big-visBig,1,1,
1alissa48stroop,2,76,23,2,1384,1,15_scotchtape,15_couch2,15,15,Small-visBig,4,2,
1alissa48stroop,2,77,23,2,1752,1,16_clock,16_garbagecan,16,16,Small-visBig,4,2,
1alissa48stroop,1,78,23,2,2452,1,08_uprightpiano,08_changepurse,8,8,Small-visBig,4,2,
1alissa48stroop,2,79,23,1,1918,1,05_wagon,05_button,5,5,Big-visBig,1,1,
1alissa48stroop,1,80,23,1,1121,1,01_apple,01_desk,1,1,Big-visBig,1,1,
3audreyagain,2,12,24,2,2817,1,13_rubberduck,13_piano,13,13,Small-visBig,4,2,
3audreyagain,2,13,24,2,2724,1,05_button,05_wagon,5,5,Small-visBig,4,2,
3audreyagain,2,14,24,1,2777,1,07_grill,07_dice,7,7,Big-visBig,1,1,
3audreyagain,1,15,24,1,1885,1,19_garlic,19_refrigerator,19,19,Big-visBig,1,1,
3audreyagain,1,16,24,2,2379,1,01_desk,01_apple,1,1,Small-visBig,4,2,
3audreyagain,1,17,24,1,3090,1,08_changepurse,08_uprightpiano,8,8,Big-visBig,1,1,
3audreyagain,2,18,24,1,2164,1,09_armchair,09_mushroom,9,9,Big-visBig,1,1,
3audreyagain,2,19,24,2,2317,1,11_controller,11_fountain13,11,11,Small-visBig,4,2,
3audreyagain,1,20,24,2,1657,1,09_armchair,09_mushroom,9,9,Small-visBig,4,2,
3audreyagain,1,21,24,1,2050,1,04_camera,04_tractor11,4,4,Big-visBig,1,1,
3audreyagain,2,22,24,2,2779,1,14_perfume,14_washingMachine,14,14,Small-visBig,4,2,
3audreyagain,1,23,24,2,2082,1,07_grill,07_dice,7,7,Small-visBig,4,2,
3audreyagain,2,24,24,1,2631,1,19_refrigerator,19_garlic,19,19,Big-visBig,1,1,
3audreyagain,2,25,24,1,3224,1,03_sofachair,03_baseball 2,3,3,Big-visBig,1,1,
3audreyagain,1,26,24,1,1808,1,12_pencil sharpener 5,12_bookcase,12,12,Big-visBig,1,1,
3audreyagain,1,27,24,2,1798,1,11_fountain13,11_controller,11,11,Small-visBig,4,2,
3audreyagain,2,28,24,2,2606,1,18_ringbox03,18_hotairballoon,18,18,Small-visBig,4,2,
3audreyagain,2,29,24,1,1593,1,08_uprightpiano,08_changepurse,8,8,Big-visBig,1,1,
3audreyagain,2,30,24,2,2714,1,01_apple,01_desk,1,1,Small-visBig,4,2,
3audreyagain,1,31,24,1,1813,1,09_mushroom,09_armchair,9,9,Big-visBig,1,1,
3audreyagain,1,32,24,2,1925,1,05_wagon,05_button,5,5,Small-visBig,4,2,
3audreyagain,2,33,24,2,2103,1,02_seashell,02_carousel,2,2,Small-visBig,4,2,
3audreyagain,1,34,24,2,2635,1,20_wheelchair,20_ornament,20,20,Small-visBig,4,2,
3audreyagain,1,35,24,1,2797,1,02_seashell,02_carousel,2,2,Big-visBig,1,1,
3audreyagain,2,36,24,1,2276,1,05_wagon,05_button,5,5,Big-visBig,1,1,
3audreyagain,2,37,24,1,3397,1,04_tractor11,04_camera,4,4,Big-visBig,1,1,
3audreyagain,2,38,24,2,2059,1,17_pinecone,17_hotairballoon2,17,17,Small-visBig,4,2,
3audreyagain,1,39,24,1,2762,1,16_clock,16_garbagecan,16,16,Big-visBig,1,1,
3audreyagain,1,40,24,2,1703,1,19_refrigerator,19_garlic,19,19,Small-visBig,4,2,
3audreyagain,1,41,24,1,1436,1,20_ornament,20_wheelchair,20,20,Big-visBig,1,1,
3audreyagain,1,42,24,2,1516,1,14_washingMachine,14_perfume,14,14,Small-visBig,4,2,
3audreyagain,2,43,24,2,2674,1,04_camera,04_tractor11,4,4,Small-visBig,4,2,
3audreyagain,2,44,24,1,2080,1,14_washingMachine,14_perfume,14,14,Big-visBig,1,1,
3audreyagain,1,45,24,2,1891,1,13_piano,13_rubberduck,13,13,Small-visBig,4,2,
3audreyagain,1,46,24,1,2717,1,11_controller,11_fountain13,11,11,Big-visBig,1,1,
3audreyagain,2,47,24,1,2062,1,01_desk,01_apple,1,1,Big-visBig,1,1,
3audreyagain,2,48,24,2,2298,1,15_scotchtape,15_couch2,15,15,Small-visBig,4,2,
3audreyagain,1,49,24,1,1864,1,14_perfume,14_washingMachine,14,14,Big-visBig,1,1,
3audreyagain,2,50,24,2,1757,1,10_bowtiepasta,10_bison,10,10,Small-visBig,4,2,
3audreyagain,2,51,24,1,3101,1,20_wheelchair,20_ornament,20,20,Big-visBig,1,1,
3audreyagain,1,52,24,2,1725,1,04_tractor11,04_camera,4,4,Small-visBig,4,2,
3audreyagain,1,53,24,2,2371,1,17_hotairballoon2,17_pinecone,17,17,Small-visBig,4,2,
3audreyagain,2,54,24,1,2220,1,17_hotairballoon2,17_pinecone,17,17,Big-visBig,1,1,
3audreyagain,1,55,24,1,1805,1,03_baseball 2,03_sofachair,3,3,Big-visBig,1,1,
3audreyagain,2,56,24,2,1337,1,07_dice,07_grill,7,7,Small-visBig,4,2,
3audreyagain,2,57,24,1,2362,1,13_piano,13_rubberduck,13,13,Big-visBig,1,1,
3audreyagain,2,58,24,2,2227,1,06_cable,06_parthenon,6,6,Small-visBig,4,2,
3audreyagain,1,59,24,1,1402,1,17_pinecone,17_hotairballoon2,17,17,Big-visBig,1,1,
3audreyagain,1,60,24,2,1625,1,10_bison,10_bowtiepasta,10,10,Small-visBig,4,2,
3audreyagain,2,61,24,1,1657,1,11_fountain13,11_controller,11,11,Big-visBig,1,1,
3audreyagain,2,62,24,2,1978,1,20_ornament,20_wheelchair,20,20,Small-visBig,4,2,
3audreyagain,1,63,24,2,1495,1,12_bookcase,12_pencil sharpener 5,12,12,Small-visBig,4,2,
3audreyagain,1,64,24,1,2106,1,18_ringbox03,18_hotairballoon,18,18,Big-visBig,1,1,
3audreyagain,2,65,24,2,1290,1,09_mushroom,09_armchair,9,9,Small-visBig,4,2,
3audreyagain,1,66,24,1,1738,1,07_dice,07_grill,7,7,Big-visBig,1,1,
3audreyagain,1,67,24,2,1860,1,15_couch2,15_scotchtape,15,15,Small-visBig,4,2,
3audreyagain,2,68,24,1,1731,1,12_bookcase,12_pencil sharpener 5,12,12,Big-visBig,1,1,
3audreyagain,2,69,24,1,1744,1,15_couch2,15_scotchtape,15,15,Big-visBig,1,1,
3audreyagain,2,70,24,2,1418,1,19_garlic,19_refrigerator,19,19,Small-visBig,4,2,
3audreyagain,1,71,24,2,1494,1,18_hotairballoon,18_ringbox03,18,18,Small-visBig,4,2,
3audreyagain,1,72,24,1,1851,1,06_cable,06_parthenon,6,6,Big-visBig,1,1,
3bella40stroop,1,12,25,1,2710,1,06_cable,06_parthenon,6,6,Big-visBig,1,1,
3bella40stroop,1,13,25,2,2029,1,13_piano,13_rubberduck,13,13,Small-visBig,4,2,
3bella40stroop,2,15,25,2,1644,1,05_button,05_wagon,5,5,Small-visBig,4,2,
3bella40stroop,2,16,25,1,760,1,06_parthenon,06_cable,6,6,Big-visBig,1,1,
3bella40stroop,2,17,25,2,1146,1,08_changepurse,08_uprightpiano,8,8,Small-visBig,4,2,
3bella40stroop,2,20,25,1,2731,1,13_piano,13_rubberduck,13,13,Big-visBig,1,1,
3bella40stroop,1,21,25,1,2933,1,11_controller,11_fountain13,11,11,Big-visBig,1,1,
3bella40stroop,2,22,25,1,1097,1,08_uprightpiano,08_changepurse,8,8,Big-visBig,1,1,
3bella40stroop,1,24,25,2,704,1,06_parthenon,06_cable,6,6,Small-visBig,4,2,
3bella40stroop,1,26,25,2,3776,1,15_couch2,15_scotchtape,15,15,Small-visBig,4,2,
3bella40stroop,2,28,25,2,2388,1,03_baseball 2,03_sofachair,3,3,Small-visBig,4,2,
3bella40stroop,1,29,25,1,2406,1,01_apple,01_desk,1,1,Big-visBig,1,1,
3bella40stroop,2,30,25,1,3165,1,12_bookcase,12_pencil sharpener 5,12,12,Big-visBig,1,1,
3bella40stroop,2,32,25,2,1535,1,18_ringbox03,18_hotairballoon,18,18,Small-visBig,4,2,
3bella40stroop,2,33,25,1,848,1,11_fountain13,11_controller,11,11,Big-visBig,1,1,
3bella40stroop,1,35,25,1,1807,1,10_bowtiepasta,10_bison,10,10,Big-visBig,1,1,
3bella40stroop,2,36,25,2,1917,1,15_scotchtape,15_couch2,15,15,Small-visBig,4,2,
3bella40stroop,1,41,25,2,1073,1,07_grill,07_dice,7,7,Small-visBig,4,2,
3bella40stroop,2,42,25,2,713,1,09_mushroom,09_armchair,9,9,Small-visBig,4,2,
3bella40stroop,2,44,25,1,896,1,09_armchair,09_mushroom,9,9,Big-visBig,1,1,
3bella40stroop,2,45,25,1,1028,1,07_grill,07_dice,7,7,Big-visBig,1,1,
3bella40stroop,1,46,25,1,3110,1,16_clock,16_garbagecan,16,16,Big-visBig,1,1,
3bella40stroop,2,48,25,2,1468,1,17_pinecone,17_hotairballoon2,17,17,Small-visBig,4,2,
3bella40stroop,2,51,25,1,1417,1,16_garbagecan,16_clock,16,16,Big-visBig,1,1,
3bella40stroop,2,52,25,2,2633,1,10_bowtiepasta,10_bison,10,10,Small-visBig,4,2,
3bella40stroop,2,54,25,2,1150,1,12_pencil sharpener 5,12_bookcase,12,12,Small-visBig,4,2,
3bella40stroop,2,55,25,1,2432,1,01_desk,01_apple,1,1,Big-visBig,1,1,
3bella40stroop,1,56,25,1,1190,1,03_baseball 2,03_sofachair,3,3,Big-visBig,1,1,
3bella40stroop,2,58,25,2,2146,1,06_cable,06_parthenon,6,6,Small-visBig,4,2,
3bella40stroop,2,59,25,1,1310,1,15_couch2,15_scotchtape,15,15,Big-visBig,1,1,
3bella40stroop,1,61,25,2,2894,1,03_sofachair,03_baseball 2,3,3,Small-visBig,4,2,
3bella40stroop,2,64,25,2,960,1,16_clock,16_garbagecan,16,16,Small-visBig,4,2,
3bella40stroop,2,68,25,1,2203,1,05_wagon,05_button,5,5,Big-visBig,1,1,
3bella40stroop,1,72,25,1,1173,1,09_mushroom,09_armchair,9,9,Big-visBig,1,1,
3bella40stroop,2,73,25,2,1683,1,14_perfume,14_washingMachine,14,14,Small-visBig,4,2,
3bella40stroop,1,76,25,1,1377,1,07_dice,07_grill,7,7,Big-visBig,1,1,
3bella40stroop,2,77,25,1,1539,1,03_sofachair,03_baseball 2,3,3,Big-visBig,1,1,
3bella40stroop,1,78,25,1,1650,1,19_garlic,19_refrigerator,19,19,Big-visBig,1,1,
3bella40stroop,1,79,25,2,1928,1,16_garbagecan,16_clock,16,16,Small-visBig,4,2,
3margo48stroop,2,11,26,2,1347,1,09_mushroom,09_armchair,9,9,Small-visBig,4,2,
3margo48stroop,1,12,26,1,1908,1,11_controller,11_fountain13,11,11,Big-visBig,1,1,
3margo48stroop,2,13,26,1,1626,1,13_piano,13_rubberduck,13,13,Big-visBig,1,1,
3margo48stroop,1,15,26,2,2546,1,01_desk,01_apple,1,1,Small-visBig,4,2,
3margo48stroop,1,17,26,2,1426,1,16_garbagecan,16_clock,16,16,Small-visBig,4,2,
3margo48stroop,1,18,26,1,2629,1,09_mushroom,09_armchair,9,9,Big-visBig,1,1,
3margo48stroop,2,19,26,1,2311,1,14_washingMachine,14_perfume,14,14,Big-visBig,1,1,
3margo48stroop,2,20,26,2,1034,1,15_scotchtape,15_couch2,15,15,Small-visBig,4,2,
3margo48stroop,2,21,26,2,723,1,03_baseball 2,03_sofachair,3,3,Small-visBig,4,2,
3margo48stroop,1,23,26,2,1871,1,09_armchair,09_mushroom,9,9,Small-visBig,4,2,
3margo48stroop,2,24,26,1,2313,1,16_garbagecan,16_clock,16,16,Big-visBig,1,1,
3margo48stroop,2,25,26,1,1029,1,17_hotairballoon2,17_pinecone,17,17,Big-visBig,1,1,
3margo48stroop,2,26,26,2,1315,1,20_ornament,20_wheelchair,20,20,Small-visBig,4,2,
3margo48stroop,1,27,26,1,2086,1,15_scotchtape,15_couch2,15,15,Big-visBig,1,1,
3margo48stroop,1,28,26,2,1536,1,19_refrigerator,19_garlic,19,19,Small-visBig,4,2,
3margo48stroop,1,29,26,1,1783,1,17_pinecone,17_hotairballoon2,17,17,Big-visBig,1,1,
3margo48stroop,2,30,26,1,2558,1,12_bookcase,12_pencil sharpener 5,12,12,Big-visBig,1,1,
3margo48stroop,1,31,26,2,2227,1,07_grill,07_dice,7,7,Small-visBig,4,2,
3margo48stroop,2,32,26,2,1248,1,19_garlic,19_refrigerator,19,19,Small-visBig,4,2,
3margo48stroop,2,34,26,2,2044,1,12_pencil sharpener 5,12_bookcase,12,12,Small-visBig,4,2,
3margo48stroop,1,35,26,1,2936,1,18_ringbox03,18_hotairballoon,18,18,Big-visBig,1,1,
3margo48stroop,2,36,26,1,3820,1,01_desk,01_apple,1,1,Big-visBig,1,1,
3margo48stroop,1,37,26,2,2244,1,14_washingMachine,14_perfume,14,14,Small-visBig,4,2,
3margo48stroop,1,38,26,1,1751,1,20_ornament,20_wheelchair,20,20,Big-visBig,1,1,
3margo48stroop,2,39,26,2,1204,1,01_apple,01_desk,1,1,Small-visBig,4,2,
3margo48stroop,1,41,26,2,3163,1,04_tractor11,04_camera,4,4,Small-visBig,4,2,
3margo48stroop,1,42,26,1,2172,1,05_button,05_wagon,5,5,Big-visBig,1,1,
3margo48stroop,2,43,26,1,2165,1,06_parthenon,06_cable,6,6,Big-visBig,1,1,
3margo48stroop,2,44,26,2,1757,1,05_button,05_wagon,5,5,Small-visBig,4,2,
3margo48stroop,1,45,26,2,2267,1,20_wheelchair,20_ornament,20,20,Small-visBig,4,2,
3margo48stroop,2,46,26,1,2130,1,08_uprightpiano,08_changepurse,8,8,Big-visBig,1,1,
3margo48stroop,2,48,26,2,1968,1,08_changepurse,08_uprightpiano,8,8,Small-visBig,4,2,
3margo48stroop,1,49,26,1,1673,1,04_camera,04_tractor11,4,4,Big-visBig,1,1,
3margo48stroop,2,50,26,2,2701,1,04_camera,04_tractor11,4,4,Small-visBig,4,2,
3margo48stroop,1,53,26,2,1562,1,11_fountain13,11_controller,11,11,Small-visBig,4,2,
3margo48stroop,1,56,26,1,3123,1,12_pencil sharpener 5,12_bookcase,12,12,Big-visBig,1,1,
3margo48stroop,1,57,26,1,2834,1,08_changepurse,08_uprightpiano,8,8,Big-visBig,1,1,
3margo48stroop,1,59,26,2,1610,1,05_wagon,05_button,5,5,Small-visBig,4,2,
3margo48stroop,2,60,26,2,1651,1,16_clock,16_garbagecan,16,16,Small-visBig,4,2,
3margo48stroop,2,61,26,2,1349,1,02_seashell,02_carousel,2,2,Small-visBig,4,2,
3margo48stroop,1,62,26,1,1845,1,03_baseball 2,03_sofachair,3,3,Big-visBig,1,1,
3margo48stroop,2,63,26,1,1777,1,15_couch2,15_scotchtape,15,15,Big-visBig,1,1,
3margo48stroop,1,64,26,2,1874,1,10_bison,10_bowtiepasta,10,10,Small-visBig,4,2,
3margo48stroop,2,65,26,1,2736,1,09_armchair,09_mushroom,9,9,Big-visBig,1,1,
3margo48stroop,1,66,26,1,2840,1,14_perfume,14_washingMachine,14,14,Big-visBig,1,1,
3margo48stroop,2,67,26,2,1363,1,11_controller,11_fountain13,11,11,Small-visBig,4,2,
3margo48stroop,1,68,26,2,2024,1,13_piano,13_rubberduck,13,13,Small-visBig,4,2,
3margo48stroop,2,69,26,1,3959,1,20_wheelchair,20_ornament,20,20,Big-visBig,1,1,
3margo48stroop,1,70,26,2,1603,1,18_hotairballoon,18_ringbox03,18,18,Small-visBig,4,2,
3margo48stroop,2,72,26,2,1692,1,17_pinecone,17_hotairballoon2,17,17,Small-visBig,4,2,
3margo48stroop,2,73,26,2,1580,1,10_bowtiepasta,10_bison,10,10,Small-visBig,4,2,
3margo48stroop,1,75,26,2,2303,1,03_sofachair,03_baseball 2,3,3,Small-visBig,4,2,
3margo48stroop,2,77,26,2,1823,1,06_cable,06_parthenon,6,6,Small-visBig,4,2,
3margo48stroop,2,78,26,1,1452,1,18_hotairballoon,18_ringbox03,18,18,Big-visBig,1,1,
3margo48stroop,1,80,26,2,2121,1,15_couch2,15_scotchtape,15,15,Small-visBig,4,2,
4charlie42stroop,1,11,27,2,2473,1,02_carousel,02_seashell,2,2,Small-visBig,4,2,
4charlie42stroop,2,12,27,1,3172,1,20_wheelchair,20_ornament,20,20,Big-visBig,1,1,
4charlie42stroop,1,13,27,2,3340,1,17_hotairballoon2,17_pinecone,17,17,Small-visBig,4,2,
4charlie42stroop,1,16,27,1,2501,1,12_pencil sharpener 5,12_bookcase,12,12,Big-visBig,1,1,
4charlie42stroop,2,17,27,1,2442,1,03_sofachair,03_baseball 2,3,3,Big-visBig,1,1,
4charlie42stroop,1,18,27,2,2617,1,04_tractor11,04_camera,4,4,Small-visBig,4,2,
4charlie42stroop,1,19,27,1,2687,1,20_ornament,20_wheelchair,20,20,Big-visBig,1,1,
4charlie42stroop,2,20,27,2,3313,1,05_button,05_wagon,5,5,Small-visBig,4,2,
4charlie42stroop,2,21,27,2,2288,1,03_baseball 2,03_sofachair,3,3,Small-visBig,4,2,
4charlie42stroop,2,22,27,1,2068,1,06_parthenon,06_cable,6,6,Big-visBig,1,1,
4charlie42stroop,1,23,27,1,2098,1,17_pinecone,17_hotairballoon2,17,17,Big-visBig,1,1,
4charlie42stroop,1,24,27,2,2346,1,08_uprightpiano,08_changepurse,8,8,Small-visBig,4,2,
4charlie42stroop,1,25,27,1,1768,1,05_button,05_wagon,5,5,Big-visBig,1,1,
4charlie42stroop,2,26,27,2,1840,1,04_camera,04_tractor11,4,4,Small-visBig,4,2,
4charlie42stroop,2,27,27,1,1848,1,13_piano,13_rubberduck,13,13,Big-visBig,1,1,
4charlie42stroop,1,28,27,2,2676,1,15_couch2,15_scotchtape,15,15,Small-visBig,4,2,
4charlie42stroop,2,29,27,2,1930,1,20_ornament,20_wheelchair,20,20,Small-visBig,4,2,
4charlie42stroop,1,30,27,2,1870,1,11_fountain13,11_controller,11,11,Small-visBig,4,2,
4charlie42stroop,2,31,27,1,3259,1,19_refrigerator,19_garlic,19,19,Big-visBig,1,1,
4charlie42stroop,2,33,27,1,1634,1,18_hotairballoon,18_ringbox03,18,18,Big-visBig,1,1,
4charlie42stroop,1,34,27,1,3116,1,16_clock,16_garbagecan,16,16,Big-visBig,1,1,
4charlie42stroop,2,35,27,2,3884,1,11_controller,11_fountain13,11,11,Small-visBig,4,2,
4charlie42stroop,1,36,27,2,1793,1,13_piano,13_rubberduck,13,13,Small-visBig,4,2,
4charlie42stroop,1,37,27,1,2226,1,18_ringbox03,18_hotairballoon,18,18,Big-visBig,1,1,
4charlie42stroop,2,38,27,1,2035,1,02_carousel,02_seashell,2,2,Big-visBig,1,1,
4charlie42stroop,1,39,27,2,1768,1,09_armchair,09_mushroom,9,9,Small-visBig,4,2,
4charlie42stroop,2,40,27,2,3074,1,18_ringbox03,18_hotairballoon,18,18,Small-visBig,4,2,
4charlie42stroop,1,41,27,2,3356,1,05_wagon,05_button,5,5,Small-visBig,4,2,
4charlie42stroop,2,42,27,1,2263,1,05_wagon,05_button,5,5,Big-visBig,1,1,
4charlie42stroop,2,43,27,2,2013,1,15_scotchtape,15_couch2,15,15,Small-visBig,4,2,
4charlie42stroop,1,44,27,1,3460,1,07_dice,07_grill,7,7,Big-visBig,1,1,
4charlie42stroop,2,46,27,2,1789,1,17_pinecone,17_hotairballoon2,17,17,Small-visBig,4,2,
4charlie42stroop,2,47,27,1,2502,1,01_desk,01_apple,1,1,Big-visBig,1,1,
4charlie42stroop,1,48,27,2,2105,1,19_refrigerator,19_garlic,19,19,Small-visBig,4,2,
4charlie42stroop,2,49,27,1,2047,1,17_hotairballoon2,17_pinecone,17,17,Big-visBig,1,1,
4charlie42stroop,1,50,27,2,1946,1,16_garbagecan,16_clock,16,16,Small-visBig,4,2,
4charlie42stroop,2,51,27,2,1896,1,19_garlic,19_refrigerator,19,19,Small-visBig,4,2,
4charlie42stroop,1,52,27,1,2692,1,04_camera,04_tractor11,4,4,Big-visBig,1,1,
4charlie42stroop,1,53,27,1,1671,1,08_changepurse,08_uprightpiano,8,8,Big-visBig,1,1,
4charlie42stroop,2,54,27,2,2541,1,08_changepurse,08_uprightpiano,8,8,Small-visBig,4,2,
4charlie42stroop,2,55,27,1,2066,1,11_fountain13,11_controller,11,11,Big-visBig,1,1,
4charlie42stroop,1,56,27,2,3400,1,10_bison,10_bowtiepasta,10,10,Small-visBig,4,2,
4charlie42stroop,2,57,27,2,3755,1,16_clock,16_garbagecan,16,16,Small-visBig,4,2,
4charlie42stroop,1,58,27,1,1563,1,09_mushroom,09_armchair,9,9,Big-visBig,1,1,
4charlie42stroop,1,60,27,2,2918,1,12_bookcase,12_pencil sharpener 5,12,12,Small-visBig,4,2,
4charlie42stroop,2,61,27,1,2219,1,08_uprightpiano,08_changepurse,8,8,Big-visBig,1,1,
4charlie42stroop,1,62,27,1,3031,1,13_rubberduck,13_piano,13,13,Big-visBig,1,1,
4charlie42stroop,1,63,27,2,3691,1,20_wheelchair,20_ornament,20,20,Small-visBig,4,2,
4charlie42stroop,2,64,27,2,3264,1,06_cable,06_parthenon,6,6,Small-visBig,4,2,
4charlie42stroop,1,65,27,1,1846,1,10_bowtiepasta,10_bison,10,10,Big-visBig,1,1,
4charlie42stroop,2,66,27,2,2688,1,07_dice,07_grill,7,7,Small-visBig,4,2,
4charlie42stroop,2,67,27,1,1447,1,10_bison,10_bowtiepasta,10,10,Big-visBig,1,1,
4charlie42stroop,1,68,27,2,1384,1,14_washingMachine,14_perfume,14,14,Small-visBig,4,2,
4charlie42stroop,2,69,27,1,1178,1,07_grill,07_dice,7,7,Big-visBig,1,1,
4charlie42stroop,1,70,27,2,1705,1,06_parthenon,06_cable,6,6,Small-visBig,4,2,
4charlie42stroop,2,71,27,2,1363,1,12_pencil sharpener 5,12_bookcase,12,12,Small-visBig,4,2,
4charlie42stroop,1,72,27,1,1658,1,11_controller,11_fountain13,11,11,Big-visBig,1,1,
4charlie42stroop,2,73,27,1,1214,1,09_armchair,09_mushroom,9,9,Big-visBig,1,1,
8tessa48,2,11,28,2,2136,1,03_baseball 2,03_sofachair,3,3,Small-visBig,4,2,
8tessa48,1,12,28,2,1692,1,13_piano,13_rubberduck,13,13,Small-visBig,4,2,
8tessa48,1,13,28,1,1172,1,02_seashell,02_carousel,2,2,Big-visBig,1,1,
8tessa48,1,14,28,2,901,1,20_wheelchair,20_ornament,20,20,Small-visBig,4,2,
8tessa48,2,15,28,2,1577,1,05_button,05_wagon,5,5,Small-visBig,4,2,
8tessa48,2,16,28,1,1988,1,11_fountain13,11_controller,11,11,Big-visBig,1,1,
8tessa48,1,17,28,2,2840,1,10_bison,10_bowtiepasta,10,10,Small-visBig,4,2,
8tessa48,2,18,28,1,2345,1,04_tractor11,04_camera,4,4,Big-visBig,1,1,
8tessa48,1,19,28,1,1779,1,18_ringbox03,18_hotairballoon,18,18,Big-visBig,1,1,
8tessa48,2,20,28,2,1218,1,16_clock,16_garbagecan,16,16,Small-visBig,4,2,
8tessa48,2,21,28,1,1044,1,16_garbagecan,16_clock,16,16,Big-visBig,1,1,
8tessa48,1,22,28,2,1530,1,14_washingMachine,14_perfume,14,14,Small-visBig,4,2,
8tessa48,1,23,28,1,1180,1,08_changepurse,08_uprightpiano,8,8,Big-visBig,1,1,
8tessa48,2,24,28,2,984,1,14_perfume,14_washingMachine,14,14,Small-visBig,4,2,
8tessa48,2,25,28,2,1544,1,02_seashell,02_carousel,2,2,Small-visBig,4,2,
8tessa48,1,26,28,2,1242,1,05_wagon,05_button,5,5,Small-visBig,4,2,
8tessa48,1,27,28,1,1258,1,04_camera,04_tractor11,4,4,Big-visBig,1,1,
8tessa48,2,28,28,1,1261,1,07_grill,07_dice,7,7,Big-visBig,1,1,
8tessa48,2,29,28,1,2323,1,19_refrigerator,19_garlic,19,19,Big-visBig,1,1,
8tessa48,2,30,28,2,1787,1,08_changepurse,08_uprightpiano,8,8,Small-visBig,4,2,
8tessa48,1,31,28,2,1350,1,12_bookcase,12_pencil sharpener 5,12,12,Small-visBig,4,2,
8tessa48,1,32,28,1,1782,1,01_apple,01_desk,1,1,Big-visBig,1,1,
8tessa48,1,33,28,2,1421,1,01_desk,01_apple,1,1,Small-visBig,4,2,
8tessa48,2,34,28,2,1281,1,10_bowtiepasta,10_bison,10,10,Small-visBig,4,2,
8tessa48,1,35,28,1,1621,1,09_mushroom,09_armchair,9,9,Big-visBig,1,1,
8tessa48,2,36,28,1,1473,1,05_wagon,05_button,5,5,Big-visBig,1,1,
8tessa48,1,37,28,1,1544,1,15_scotchtape,15_couch2,15,15,Big-visBig,1,1,
8tessa48,2,38,28,2,1049,1,12_pencil sharpener 5,12_bookcase,12,12,Small-visBig,4,2,
8tessa48,2,39,28,1,1011,1,09_armchair,09_mushroom,9,9,Big-visBig,1,1,
8tessa48,1,40,28,2,3062,1,03_sofachair,03_baseball 2,3,3,Small-visBig,4,2,
8tessa48,1,41,28,1,1145,1,17_pinecone,17_hotairballoon2,17,17,Big-visBig,1,1,
8tessa48,1,42,28,2,957,1,02_carousel,02_seashell,2,2,Small-visBig,4,2,
1iznreal,1,11,29,2,3144,1,02_carousel,02_seashell,2,2,Small-visBig,4,2,
1iznreal,1,13,29,1,1976,1,13_rubberduck,13_piano,13,13,Big-visBig,1,1,
1iznreal,2,14,29,1,2472,1,02_carousel,02_seashell,2,2,Big-visBig,1,1,
1iznreal,2,18,29,1,2911,1,04_tractor11,04_camera,4,4,Big-visBig,1,1,
1iznreal,2,19,29,2,2764,1,14_perfume,14_washingMachine,14,14,Small-visBig,4,2,
1iznreal,1,20,29,1,2881,1,06_cable,06_parthenon,6,6,Big-visBig,1,1,
1iznreal,1,21,29,2,2712,1,15_couch2,15_scotchtape,15,15,Small-visBig,4,2,
1iznreal,2,22,29,2,2161,1,01_apple,01_desk,1,1,Small-visBig,4,2,
1iznreal,1,23,29,1,1964,1,02_seashell,02_carousel,2,2,Big-visBig,1,1,
1iznreal,1,25,29,2,2793,1,17_hotairballoon2,17_pinecone,17,17,Small-visBig,4,2,
1iznreal,1,26,29,1,1913,1,04_camera,04_tractor11,4,4,Big-visBig,1,1,
1iznreal,2,27,29,1,2548,1,15_couch2,15_scotchtape,15,15,Big-visBig,1,1,
1iznreal,2,28,29,2,2016,1,15_scotchtape,15_couch2,15,15,Small-visBig,4,2,
1iznreal,2,29,29,2,1610,1,07_dice,07_grill,7,7,Small-visBig,4,2,
1iznreal,1,30,29,1,1877,1,20_ornament,20_wheelchair,20,20,Big-visBig,1,1,
1iznreal,1,31,29,2,2734,1,19_refrigerator,19_garlic,19,19,Small-visBig,4,2,
1iznreal,2,32,29,1,1370,1,20_wheelchair,20_ornament,20,20,Big-visBig,1,1,
1iznreal,1,33,29,1,2006,1,09_mushroom,09_armchair,9,9,Big-visBig,1,1,
1iznreal,2,34,29,2,1412,1,08_changepurse,08_uprightpiano,8,8,Small-visBig,4,2,
1iznreal,2,35,29,1,1012,1,08_uprightpiano,08_changepurse,8,8,Big-visBig,1,1,
1iznreal,1,36,29,2,2218,1,10_bison,10_bowtiepasta,10,10,Small-visBig,4,2,
1iznreal,1,37,29,1,1425,1,05_button,05_wagon,5,5,Big-visBig,1,1,
1iznreal,2,38,29,1,2241,1,11_fountain13,11_controller,11,11,Big-visBig,1,1,
1iznreal,2,40,29,2,1963,1,16_clock,16_garbagecan,16,16,Small-visBig,4,2,
1iznreal,2,41,29,2,1585,1,17_pinecone,17_hotairballoon2,17,17,Small-visBig,4,2,
1iznreal,1,42,29,1,1776,1,10_bowtiepasta,10_bison,10,10,Big-visBig,1,1,
1iznreal,2,43,29,1,3160,1,19_refrigerator,19_garlic,19,19,Big-visBig,1,1,
1iznreal,2,45,29,1,1486,1,10_bison,10_bowtiepasta,10,10,Big-visBig,1,1,
1iznreal,1,46,29,2,3730,1,13_piano,13_rubberduck,13,13,Small-visBig,4,2,
1iznreal,1,47,29,1,2461,1,17_pinecone,17_hotairballoon2,17,17,Big-visBig,1,1,
1iznreal,1,49,29,1,2050,1,12_pencil sharpener 5,12_bookcase,12,12,Big-visBig,1,1,
29adam36,2,13,30,1,868,1,20_wheelchair,20_ornament,20,20,Big-visBig,1,1,
29adam36,1,14,30,2,2974,1,10_bison,10_bowtiepasta,10,10,Small-visBig,4,2,
2quint36notprac,2,11,31,1,2309,1,02_carousel,02_seashell,2,2,Big-visBig,1,1,
2quint36notprac,1,12,31,2,1995,1,02_carousel,02_seashell,2,2,Small-visBig,4,2,
2quint36notprac,2,13,31,2,2487,1,11_controller,11_fountain13,11,11,Small-visBig,4,2,
2quint36notprac,1,14,31,1,1542,1,05_button,05_wagon,5,5,Big-visBig,1,1,
2quint36notprac,2,15,31,1,2121,1,09_armchair,09_mushroom,9,9,Big-visBig,1,1,
2quint36notprac,1,16,31,2,2255,1,08_uprightpiano,08_changepurse,8,8,Small-visBig,4,2,
2quint36notprac,1,17,31,2,2695,1,10_bison,10_bowtiepasta,10,10,Small-visBig,4,2,
2quint36notprac,2,18,31,1,1942,1,11_fountain13,11_controller,11,11,Big-visBig,1,1,
2quint36notprac,1,19,31,1,2795,1,03_baseball 2,03_sofachair,3,3,Big-visBig,1,1,
2quint36notprac,2,20,31,2,1648,1,04_camera,04_tractor11,4,4,Small-visBig,4,2,
2quint36notprac,1,21,31,2,1967,1,12_bookcase,12_pencil sharpener 5,12,12,Small-visBig,4,2,
2quint36notprac,1,22,31,1,1695,1,19_garlic,19_refrigerator,19,19,Big-visBig,1,1,
2quint36notprac,2,23,31,1,1803,1,05_wagon,05_button,5,5,Big-visBig,1,1,
2quint36notprac,2,24,31,2,1892,1,10_bowtiepasta,10_bison,10,10,Small-visBig,4,2,
2quint36notprac,2,25,31,1,2124,1,06_parthenon,06_cable,6,6,Big-visBig,1,1,
2quint36notprac,1,26,31,2,1908,1,19_refrigerator,19_garlic,19,19,Small-visBig,4,2,
2quint36notprac,1,27,31,1,2047,1,13_rubberduck,13_piano,13,13,Big-visBig,1,1,
2quint36notprac,2,28,31,2,1977,1,19_garlic,19_refrigerator,19,19,Small-visBig,4,2,
2quint36notprac,2,29,31,1,1868,1,01_desk,01_apple,1,1,Big-visBig,1,1,
2quint36notprac,2,30,31,2,1710,1,08_changepurse,08_uprightpiano,8,8,Small-visBig,4,2,
2quint36notprac,1,31,31,2,1817,1,20_wheelchair,20_ornament,20,20,Small-visBig,4,2,
2quint36notprac,1,32,31,1,2696,1,15_scotchtape,15_couch2,15,15,Big-visBig,1,1,
2quint36notprac,2,33,31,2,1912,1,03_baseball 2,03_sofachair,3,3,Small-visBig,4,2,
2quint36notprac,1,34,31,1,2056,1,02_seashell,02_carousel,2,2,Big-visBig,1,1,
2quint36notprac,2,35,31,1,1679,1,17_hotairballoon2,17_pinecone,17,17,Big-visBig,1,1,
2quint36notprac,1,36,31,2,1482,1,11_fountain13,11_controller,11,11,Small-visBig,4,2,
2quint36notprac,1,37,31,1,1321,1,07_dice,07_grill,7,7,Big-visBig,1,1,
2quint36notprac,2,38,31,2,2087,1,05_button,05_wagon,5,5,Small-visBig,4,2,
2quint36notprac,2,39,31,1,2008,1,19_refrigerator,19_garlic,19,19,Big-visBig,1,1,
2quint36notprac,1,40,31,2,2013,1,03_sofachair,03_baseball 2,3,3,Small-visBig,4,2,
2quint36notprac,2,41,31,2,1432,1,12_pencil sharpener 5,12_bookcase,12,12,Small-visBig,4,2,
2quint36notprac,2,42,31,1,1507,1,04_tractor11,04_camera,4,4,Big-visBig,1,1,
2quint36notprac,1,43,31,2,1871,1,05_wagon,05_button,5,5,Small-visBig,4,2,
2quint36notprac,1,44,31,1,1895,1,11_controller,11_fountain13,11,11,Big-visBig,1,1,
2quint36notprac,2,45,31,1,2136,1,20_wheelchair,20_ornament,20,20,Big-visBig,1,1,
2quint36notprac,1,46,31,1,1484,1,16_clock,16_garbagecan,16,16,Big-visBig,1,1,
2quint36notprac,1,47,31,2,1414,1,09_armchair,09_mushroom,9,9,Small-visBig,4,2,
2quint36notprac,2,48,31,2,1601,1,17_pinecone,17_hotairballoon2,17,17,Small-visBig,4,2,
2quint36notprac,1,49,31,2,1643,1,06_parthenon,06_cable,6,6,Small-visBig,4,2,
2quint36notprac,1,50,31,1,1787,1,12_pencil sharpener 5,12_bookcase,12,12,Big-visBig,1,1,
2quint36notprac,2,51,31,2,1235,1,18_ringbox03,18_hotairballoon,18,18,Small-visBig,4,2,
2quint36notprac,2,52,31,1,1800,1,14_washingMachine,14_perfume,14,14,Big-visBig,1,1,
2quint36notprac,1,53,31,1,1781,1,04_camera,04_tractor11,4,4,Big-visBig,1,1,
2quint36notprac,1,54,31,2,2259,1,07_grill,07_dice,7,7,Small-visBig,4,2,
2quint36notprac,2,55,31,2,1927,1,02_seashell,02_carousel,2,2,Small-visBig,4,2,
2quint36notprac,2,56,31,1,2117,1,18_hotairballoon,18_ringbox03,18,18,Big-visBig,1,1,
2quint36notprac,2,57,31,2,1675,1,14_perfume,14_washingMachine,14,14,Small-visBig,4,2,
2quint36notprac,1,58,31,2,2180,1,13_piano,13_rubberduck,13,13,Small-visBig,4,2,
2quint36notprac,2,59,31,1,1753,1,03_sofachair,03_baseball 2,3,3,Big-visBig,1,1,
2quint36notprac,1,60,31,1,1670,1,17_pinecone,17_hotairballoon2,17,17,Big-visBig,1,1,
2quint36notprac,2,61,31,1,1742,1,15_couch2,15_scotchtape,15,15,Big-visBig,1,1,
2quint36notprac,1,62,31,1,1032,1,20_ornament,20_wheelchair,20,20,Big-visBig,1,1,
2quint36notprac,2,63,31,2,1437,1,07_dice,07_grill,7,7,Small-visBig,4,2,
2quint36notprac,1,64,31,2,2315,1,15_couch2,15_scotchtape,15,15,Small-visBig,4,2,
2quint36notprac,2,65,31,2,1890,1,20_ornament,20_wheelchair,20,20,Small-visBig,4,2,
2quint36notprac,2,66,31,1,1381,1,16_garbagecan,16_clock,16,16,Big-visBig,1,1,
2quint36notprac,1,67,31,2,1410,1,17_hotairballoon2,17_pinecone,17,17,Small-visBig,4,2,
2quint36notprac,1,68,31,1,1771,1,14_perfume,14_washingMachine,14,14,Big-visBig,1,1,
2quint36notprac,2,69,31,1,1894,1,12_bookcase,12_pencil sharpener 5,12,12,Big-visBig,1,1,
80landonstroop,2,12,32,1,1193,1,12_bookcase,12_pencil sharpener 5,12,12,Big-visBig,1,1,
80landonstroop,2,13,32,2,801,1,14_perfume,14_washingMachine,14,14,Small-visBig,4,2,
80landonstroop,1,14,32,1,1351,1,17_pinecone,17_hotairballoon2,17,17,Big-visBig,1,1,
80landonstroop,2,15,32,1,1102,1,01_desk,01_apple,1,1,Big-visBig,1,1,
80landonstroop,1,16,32,2,1105,1,01_desk,01_apple,1,1,Small-visBig,4,2,
80landonstroop,2,17,32,2,1109,1,20_ornament,20_wheelchair,20,20,Small-visBig,4,2,
80landonstroop,2,18,32,1,881,1,14_washingMachine,14_perfume,14,14,Big-visBig,1,1,
80landonstroop,1,19,32,2,1020,1,05_wagon,05_button,5,5,Small-visBig,4,2,
80landonstroop,1,20,32,1,1215,1,13_rubberduck,13_piano,13,13,Big-visBig,1,1,
80landonstroop,1,21,32,2,967,1,12_bookcase,12_pencil sharpener 5,12,12,Small-visBig,4,2,
80landonstroop,2,22,32,1,1136,1,19_refrigerator,19_garlic,19,19,Big-visBig,1,1,
80landonstroop,2,23,32,2,1397,1,09_mushroom,09_armchair,9,9,Small-visBig,4,2,
80landonstroop,1,24,32,1,1101,1,02_seashell,02_carousel,2,2,Big-visBig,1,1,
80landonstroop,1,25,32,2,951,1,15_couch2,15_scotchtape,15,15,Small-visBig,4,2,
80landonstroop,1,26,32,1,1195,1,06_cable,06_parthenon,6,6,Big-visBig,1,1,
80landonstroop,2,27,32,2,1046,1,08_changepurse,08_uprightpiano,8,8,Small-visBig,4,2,
80landonstroop,2,28,32,1,756,1,13_piano,13_rubberduck,13,13,Big-visBig,1,1,
80landonstroop,2,30,32,1,2261,1,05_wagon,05_button,5,5,Big-visBig,1,1,
80landonstroop,2,31,32,2,1137,1,01_apple,01_desk,1,1,Small-visBig,4,2,
80landonstroop,1,32,32,1,801,1,14_perfume,14_washingMachine,14,14,Big-visBig,1,1,
80landonstroop,1,33,32,2,1050,1,09_armchair,09_mushroom,9,9,Small-visBig,4,2,
80landonstroop,2,34,32,1,1231,1,11_fountain13,11_controller,11,11,Big-visBig,1,1,
80landonstroop,1,35,32,1,982,1,09_mushroom,09_armchair,9,9,Big-visBig,1,1,
80landonstroop,2,36,32,2,1468,1,18_ringbox03,18_hotairballoon,18,18,Small-visBig,4,2,
80landonstroop,1,37,32,2,1045,1,06_parthenon,06_cable,6,6,Small-visBig,4,2,
80landonstroop,1,38,32,1,1041,1,03_baseball 2,03_sofachair,3,3,Big-visBig,1,1,
80landonstroop,2,39,32,1,1292,1,18_hotairballoon,18_ringbox03,18,18,Big-visBig,1,1,
80landonstroop,1,41,32,2,1271,1,04_tractor11,04_camera,4,4,Small-visBig,4,2,
80landonstroop,1,42,32,1,1078,1,20_ornament,20_wheelchair,20,20,Big-visBig,1,1,
80landonstroop,2,43,32,1,1221,1,02_carousel,02_seashell,2,2,Big-visBig,1,1,
80landonstroop,2,44,32,2,1137,1,02_seashell,02_carousel,2,2,Small-visBig,4,2,
80landonstroop,1,46,32,1,1263,1,10_bowtiepasta,10_bison,10,10,Big-visBig,1,1,
80landonstroop,1,47,32,2,1077,1,19_refrigerator,19_garlic,19,19,Small-visBig,4,2,
80landonstroop,2,48,32,2,1665,1,11_controller,11_fountain13,11,11,Small-visBig,4,2,
80landonstroop,2,49,32,2,932,1,12_pencil sharpener 5,12_bookcase,12,12,Small-visBig,4,2,
80landonstroop,2,50,32,1,2767,1,20_wheelchair,20_ornament,20,20,Big-visBig,1,1,
80landonstroop,1,51,32,1,1108,1,16_clock,16_garbagecan,16,16,Big-visBig,1,1,
80landonstroop,1,52,32,2,1510,1,07_grill,07_dice,7,7,Small-visBig,4,2,
80landonstroop,1,53,32,1,1609,1,07_dice,07_grill,7,7,Big-visBig,1,1,
80landonstroop,2,54,32,2,1344,1,05_button,05_wagon,5,5,Small-visBig,4,2,
80landonstroop,1,55,32,2,1019,1,17_hotairballoon2,17_pinecone,17,17,Small-visBig,4,2,
80landonstroop,2,56,32,1,1084,1,16_garbagecan,16_clock,16,16,Big-visBig,1,1,
80landonstroop,1,57,32,2,1274,1,03_sofachair,03_baseball 2,3,3,Small-visBig,4,2,
80landonstroop,2,58,32,2,1286,1,17_pinecone,17_hotairballoon2,17,17,Small-visBig,4,2,
80landonstroop,1,59,32,1,1199,1,11_controller,11_fountain13,11,11,Big-visBig,1,1,
80landonstroop,2,60,32,1,1279,1,08_uprightpiano,08_changepurse,8,8,Big-visBig,1,1,
80landonstroop,2,61,32,2,1058,1,04_camera,04_tractor11,4,4,Small-visBig,4,2,
80landonstroop,2,62,32,1,1149,1,06_parthenon,06_cable,6,6,Big-visBig,1,1,
80landonstroop,1,63,32,1,1021,1,05_button,05_wagon,5,5,Big-visBig,1,1,
80landonstroop,1,64,32,2,1384,1,13_piano,13_rubberduck,13,13,Small-visBig,4,2,
80landonstroop,2,65,32,1,1574,1,04_tractor11,04_camera,4,4,Big-visBig,1,1,
80landonstroop,1,66,32,2,884,1,16_garbagecan,16_clock,16,16,Small-visBig,4,2,
80landonstroop,1,67,32,1,937,1,01_apple,01_desk,1,1,Big-visBig,1,1,
80landonstroop,2,68,32,2,1518,1,15_scotchtape,15_couch2,15,15,Small-visBig,4,2,
80landonstroop,2,69,32,2,1048,1,16_clock,16_garbagecan,16,16,Small-visBig,4,2,
80landonstroop,1,70,32,1,1365,1,15_scotchtape,15_couch2,15,15,Big-visBig,1,1,
80landonstroop,2,71,32,1,1386,1,17_hotairballoon2,17_pinecone,17,17,Big-visBig,1,1,
80landonstroop,1,72,32,2,996,1,08_uprightpiano,08_changepurse,8,8,Small-visBig,4,2,
80landonstroop,2,73,32,1,1064,1,09_armchair,09_mushroom,9,9,Big-visBig,1,1,
84naomistroop,1,11,33,2,3909,1,04_tractor11,04_camera,4,4,Small-visBig,4,2,
84naomistroop,1,13,33,1,2449,1,12_pencil sharpener 5,12_bookcase,12,12,Big-visBig,1,1,
84naomistroop,2,14,33,1,2658,1,01_desk,01_apple,1,1,Big-visBig,1,1,
84naomistroop,2,15,33,2,2025,1,09_mushroom,09_armchair,9,9,Small-visBig,4,2,
84naomistroop,1,16,33,2,3331,1,17_hotairballoon2,17_pinecone,17,17,Small-visBig,4,2,
84naomistroop,2,18,33,1,2292,1,03_sofachair,03_baseball 2,3,3,Big-visBig,1,1,
84naomistroop,1,20,33,1,2881,1,11_controller,11_fountain13,11,11,Big-visBig,1,1,
84naomistroop,1,21,33,2,2594,1,14_washingMachine,14_perfume,14,14,Small-visBig,4,2,
84naomistroop,2,23,33,2,3999,1,16_clock,16_garbagecan,16,16,Small-visBig,4,2,
84naomistroop,1,24,33,1,3101,1,15_scotchtape,15_couch2,15,15,Big-visBig,1,1,
84naomistroop,2,25,33,2,3895,1,07_dice,07_grill,7,7,Small-visBig,4,2,
84naomistroop,1,26,33,2,3541,1,09_armchair,09_mushroom,9,9,Small-visBig,4,2,
84naomistroop,2,27,33,1,3054,1,04_tractor11,04_camera,4,4,Big-visBig,1,1,
84naomistroop,1,28,33,1,2913,1,06_cable,06_parthenon,6,6,Big-visBig,1,1,
84naomistroop,1,29,33,2,2603,1,15_couch2,15_scotchtape,15,15,Small-visBig,4,2,
84naomistroop,2,30,33,1,2583,1,12_bookcase,12_pencil sharpener 5,12,12,Big-visBig,1,1,
84naomistroop,1,32,33,1,2286,1,13_rubberduck,13_piano,13,13,Big-visBig,1,1,
84naomistroop,2,33,33,2,2606,1,03_baseball 2,03_sofachair,3,3,Small-visBig,4,2,
84naomistroop,1,35,33,1,3136,1,03_baseball 2,03_sofachair,3,3,Big-visBig,1,1,
84naomistroop,2,36,33,1,1936,1,06_parthenon,06_cable,6,6,Big-visBig,1,1,
84naomistroop,1,37,33,2,3255,1,13_piano,13_rubberduck,13,13,Small-visBig,4,2,
84naomistroop,2,38,33,2,2962,1,15_scotchtape,15_couch2,15,15,Small-visBig,4,2,
84naomistroop,1,43,33,1,2389,1,17_pinecone,17_hotairballoon2,17,17,Big-visBig,1,1,
84naomistroop,2,44,33,1,3706,1,13_piano,13_rubberduck,13,13,Big-visBig,1,1,
84naomistroop,2,45,33,1,2561,1,05_wagon,05_button,5,5,Big-visBig,1,1,
84naomistroop,1,46,33,2,2967,1,08_uprightpiano,08_changepurse,8,8,Small-visBig,4,2,
84naomistroop,2,54,33,1,1962,1,17_hotairballoon2,17_pinecone,17,17,Big-visBig,1,1,
84naomistroop,2,56,33,2,2174,1,12_pencil sharpener 5,12_bookcase,12,12,Small-visBig,4,2,
84naomistroop,1,57,33,1,2237,1,07_dice,07_grill,7,7,Big-visBig,1,1,
84naomistroop,2,58,33,1,3414,1,02_carousel,02_seashell,2,2,Big-visBig,1,1,
84naomistroop,2,60,33,2,2655,1,10_bowtiepasta,10_bison,10,10,Small-visBig,4,2,
84naomistroop,2,61,33,1,1979,1,18_hotairballoon,18_ringbox03,18,18,Big-visBig,1,1,
84naomistroop,2,62,33,2,2661,1,04_camera,04_tractor11,4,4,Small-visBig,4,2,
84naomistroop,1,63,33,2,2153,1,20_wheelchair,20_ornament,20,20,Small-visBig,4,2,
84naomistroop,1,64,33,1,1847,1,08_changepurse,08_uprightpiano,8,8,Big-visBig,1,1,
84naomistroop,2,65,33,2,3460,1,02_seashell,02_carousel,2,2,Small-visBig,4,2,
84naomistroop,2,66,33,1,1028,1,08_uprightpiano,08_changepurse,8,8,Big-visBig,1,1,
84naomistroop,1,67,33,1,2170,1,18_ringbox03,18_hotairballoon,18,18,Big-visBig,1,1,
84naomistroop,2,69,33,1,1796,1,15_couch2,15_scotchtape,15,15,Big-visBig,1,1,
84naomistroop,2,70,33,2,3549,1,01_apple,01_desk,1,1,Small-visBig,4,2,
84naomistroop,1,71,33,2,2588,1,12_bookcase,12_pencil sharpener 5,12,12,Small-visBig,4,2,
84naomistroop,1,72,33,1,1369,1,20_ornament,20_wheelchair,20,20,Big-visBig,1,1,
84naomistroop,1,73,33,2,1786,1,01_desk,01_apple,1,1,Small-visBig,4,2,
84naomistroop,2,74,33,1,1774,1,10_bison,10_bowtiepasta,10,10,Big-visBig,1,1,
84naomistroop,1,75,33,1,1938,1,05_button,05_wagon,5,5,Big-visBig,1,1,
84naomistroop,2,76,33,2,2237,1,05_button,05_wagon,5,5,Small-visBig,4,2,
84naomistroop,1,77,33,2,1614,1,10_bison,10_bowtiepasta,10,10,Small-visBig,4,2,
85simonstroop,2,15,34,2,2655,1,17_pinecone,17_hotairballoon2,17,17,Small-visBig,4,2,
85simonstroop,2,17,34,2,3316,1,05_button,05_wagon,5,5,Small-visBig,4,2,
85simonstroop,1,23,34,1,3349,1,08_changepurse,08_uprightpiano,8,8,Big-visBig,1,1,
85simonstroop,2,24,34,1,1228,1,01_desk,01_apple,1,1,Big-visBig,1,1,
85simonstroop,2,25,34,1,1431,1,11_fountain13,11_controller,11,11,Big-visBig,1,1,
85simonstroop,1,26,34,1,1150,1,13_rubberduck,13_piano,13,13,Big-visBig,1,1,
85simonstroop,1,27,34,2,1636,1,14_washingMachine,14_perfume,14,14,Small-visBig,4,2,
85simonstroop,2,28,34,2,1867,1,06_cable,06_parthenon,6,6,Small-visBig,4,2,
85simonstroop,1,29,34,1,1268,1,16_clock,16_garbagecan,16,16,Big-visBig,1,1,
85simonstroop,2,31,34,1,3265,1,18_hotairballoon,18_ringbox03,18,18,Big-visBig,1,1,
85simonstroop,2,33,34,2,2064,1,18_ringbox03,18_hotairballoon,18,18,Small-visBig,4,2,
85simonstroop,1,34,34,2,1496,1,18_hotairballoon,18_ringbox03,18,18,Small-visBig,4,2,
85simonstroop,1,35,34,1,1586,1,19_garlic,19_refrigerator,19,19,Big-visBig,1,1,
85simonstroop,2,36,34,1,1032,1,13_piano,13_rubberduck,13,13,Big-visBig,1,1,
85simonstroop,1,37,34,1,1988,1,12_pencil sharpener 5,12_bookcase,12,12,Big-visBig,1,1,
85simonstroop,1,39,34,2,1839,1,16_garbagecan,16_clock,16,16,Small-visBig,4,2,
85simonstroop,2,42,34,2,1559,1,14_perfume,14_washingMachine,14,14,Small-visBig,4,2,
85simonstroop,2,43,34,1,1361,1,07_grill,07_dice,7,7,Big-visBig,1,1,
85simonstroop,1,44,34,1,992,1,11_controller,11_fountain13,11,11,Big-visBig,1,1,
85simonstroop,2,46,34,2,1991,1,20_ornament,20_wheelchair,20,20,Small-visBig,4,2,
85simonstroop,2,47,34,1,2228,1,20_wheelchair,20_ornament,20,20,Big-visBig,1,1,
85simonstroop,1,48,34,2,1915,1,09_armchair,09_mushroom,9,9,Small-visBig,4,2,
85simonstroop,2,51,34,1,2481,1,04_tractor11,04_camera,4,4,Big-visBig,1,1,
