id,correctSide,trial,sub,condition,RT,correct,leftImage,rightImage,imagePair,imagePairCheck,category,categoryNum,sizeNum
01autumn47,2,1,1,1,3176,1,09_armchair,09_mushroom,9,9,Big-visBig,1,1
01autumn47,1,2,1,2,2406,1,06_parthenon,06_cable,6,6,Small-visBig,4,2
01autumn47,1,3,1,1,2215,1,14_perfume,14_washingMachine,14,14,Big-visBig,1,1
01autumn47,2,4,1,2,1777,1,12_pencil sharpener 5,12_bookcase,12,12,Small-visBig,4,2
01autumn47,2,5,1,2,2098,1,02_seashell,02_carousel,2,2,Small-visBig,4,2
01autumn47,1,6,1,1,2041,1,15_scotchtape,15_couch2,15,15,Big-visBig,1,1
01autumn47,2,7,1,1,2593,1,04_tractor11,04_camera,4,4,Big-visBig,1,1
01autumn47,1,8,1,2,2427,1,13_piano,13_rubberduck,13,13,Small-visBig,4,2
01autumn47,2,9,1,2,1990,1,03_baseball 2,03_sofachair,3,3,Small-visBig,4,2
01autumn47,1,10,1,1,3021,1,06_cable,06_parthenon,6,6,Big-visBig,1,1
01autumn47,2,11,1,1,1970,1,12_bookcase,12_pencil sharpener 5,12,12,Big-visBig,1,1
01autumn47,1,12,1,2,1691,1,03_sofachair,03_baseball 2,3,3,Small-visBig,4,2
01autumn47,2,13,1,2,1735,1,19_garlic,19_refrigerator,19,19,Small-visBig,4,2
01autumn47,1,14,1,2,1665,1,10_bison,10_bowtiepasta,10,10,Small-visBig,4,2
01autumn47,2,15,1,1,1456,1,06_parthenon,06_cable,6,6,Big-visBig,1,1
01autumn47,1,16,1,1,1533,1,16_clock,16_garbagecan,16,16,Big-visBig,1,1
01autumn47,1,17,1,2,1402,1,19_refrigerator,19_garlic,19,19,Small-visBig,4,2
01autumn47,2,18,1,2,2060,0,14_perfume,14_washingMachine,14,14,Small-visBig,4,2
01autumn47,1,19,1,1,2026,1,08_changepurse,08_uprightpiano,8,8,Big-visBig,1,1
01autumn47,2,20,1,1,2423,1,20_wheelchair,20_ornament,20,20,Big-visBig,1,1
01autumn47,2,21,1,2,1600,1,13_rubberduck,13_piano,13,13,Small-visBig,4,2
01autumn47,1,22,1,2,1394,1,14_washingMachine,14_perfume,14,14,Small-visBig,4,2
01autumn47,2,23,1,1,1921,1,18_hotairballoon,18_ringbox03,18,18,Big-visBig,1,1
01autumn47,1,24,1,1,2080,0,02_seashell,02_carousel,2,2,Big-visBig,1,1
01autumn47,1,25,1,2,1547,1,08_uprightpiano,08_changepurse,8,8,Small-visBig,4,2
01autumn47,2,26,1,2,1663,1,11_controller,11_fountain13,11,11,Small-visBig,4,2
01autumn47,2,27,1,1,1603,1,17_hotairballoon2,17_pinecone,17,17,Big-visBig,1,1
01autumn47,1,28,1,1,1863,1,10_bowtiepasta,10_bison,10,10,Big-visBig,1,1
01autumn47,2,29,1,2,2099,1,01_apple,01_desk,1,1,Small-visBig,4,2
01autumn47,1,30,1,1,1669,1,20_ornament,20_wheelchair,20,20,Big-visBig,1,1
01autumn47,1,31,1,2,1823,1,16_garbagecan,16_clock,16,16,Small-visBig,4,2
01autumn47,2,32,1,1,1668,1,15_couch2,15_scotchtape,15,15,Big-visBig,1,1
01autumn47,2,33,1,1,6164,1,02_carousel,02_seashell,2,2,Big-visBig,1,1
01autumn47,1,34,1,2,1569,1,01_desk,01_apple,1,1,Small-visBig,4,2
01autumn47,2,35,1,2,1771,0,04_camera,04_tractor11,4,4,Small-visBig,4,2
01autumn47,1,36,1,1,1985,1,18_ringbox03,18_hotairballoon,18,18,Big-visBig,1,1
01autumn47,2,37,1,1,1938,1,13_piano,13_rubberduck,13,13,Big-visBig,1,1
01autumn47,1,38,1,2,1438,1,04_tractor11,04_camera,4,4,Small-visBig,4,2
01autumn47,2,39,1,2,2036,1,08_changepurse,08_uprightpiano,8,8,Small-visBig,4,2
01autumn47,1,40,1,1,3350,0,09_mushroom,09_armchair,9,9,Big-visBig,1,1
01autumn47,2,41,1,1,1744,1,16_garbagecan,16_clock,16,16,Big-visBig,1,1
01autumn47,1,42,1,1,3075,1,19_garlic,19_refrigerator,19,19,Big-visBig,1,1
01autumn47,1,43,1,2,1281,1,09_armchair,09_mushroom,9,9,Small-visBig,4,2
01autumn47,2,44,1,2,1585,1,20_ornament,20_wheelchair,20,20,Small-visBig,4,2
01autumn47,1,45,1,1,2498,0,04_camera,04_tractor11,4,4,Big-visBig,1,1
01autumn47,1,46,1,2,3611,1,02_carousel,02_seashell,2,2,Small-visBig,4,2
01autumn47,2,47,1,1,1345,1,10_bison,10_bowtiepasta,10,10,Big-visBig,1,1
01autumn47,2,48,1,2,1943,1,16_clock,16_garbagecan,16,16,Small-visBig,4,2
01autumn47,1,49,1,2,1749,1,15_couch2,15_scotchtape,15,15,Small-visBig,4,2
01autumn47,1,50,1,1,3544,1,07_dice,07_grill,7,7,Big-visBig,1,1
01autumn47,2,51,1,1,1943,1,08_uprightpiano,08_changepurse,8,8,Big-visBig,1,1
01autumn47,2,52,1,2,2048,1,07_dice,07_grill,7,7,Small-visBig,4,2
01autumn47,2,53,1,1,1421,1,19_refrigerator,19_garlic,19,19,Big-visBig,1,1
01autumn47,1,54,1,2,1412,1,07_grill,07_dice,7,7,Small-visBig,4,2
01autumn47,2,55,1,2,2566,1,17_pinecone,17_hotairballoon2,17,17,Small-visBig,4,2
01autumn47,1,56,1,1,1845,1,11_controller,11_fountain13,11,11,Big-visBig,1,1
01autumn47,2,57,1,1,2138,1,01_desk,01_apple,1,1,Big-visBig,1,1
01autumn47,1,58,1,2,2175,1,05_wagon,05_button,5,5,Small-visBig,4,2
01autumn47,2,59,1,2,1886,1,05_button,05_wagon,5,5,Small-visBig,4,2
01autumn47,1,60,1,1,1221,1,01_apple,01_desk,1,1,Big-visBig,1,1
01autumn47,2,61,1,2,1451,1,15_scotchtape,15_couch2,15,15,Small-visBig,4,2
01autumn47,2,62,1,1,2119,1,07_grill,07_dice,7,7,Big-visBig,1,1
01autumn47,1,63,1,1,1915,1,13_rubberduck,13_piano,13,13,Big-visBig,1,1
01autumn47,1,64,1,2,2297,1,11_fountain13,11_controller,11,11,Small-visBig,4,2
01autumn47,2,65,1,1,2225,1,11_fountain13,11_controller,11,11,Big-visBig,1,1
01autumn47,1,66,1,2,1895,1,18_hotairballoon,18_ringbox03,18,18,Small-visBig,4,2
01autumn47,2,67,1,2,1711,1,10_bowtiepasta,10_bison,10,10,Small-visBig,4,2
01autumn47,1,68,1,1,3080,1,03_baseball 2,03_sofachair,3,3,Big-visBig,1,1
01autumn47,2,69,1,1,1674,1,05_wagon,05_button,5,5,Big-visBig,1,1
01autumn47,1,70,1,1,1526,1,05_button,05_wagon,5,5,Big-visBig,1,1
01autumn47,2,71,1,2,1394,1,06_cable,06_parthenon,6,6,Small-visBig,4,2
01autumn47,1,72,1,2,1385,1,20_wheelchair,20_ornament,20,20,Small-visBig,4,2
01autumn47,2,73,1,2,1482,1,18_ringbox03,18_hotairballoon,18,18,Small-visBig,4,2
01autumn47,2,74,1,1,1996,1,14_washingMachine,14_perfume,14,14,Big-visBig,1,1
01MMRowan04STROOP,1,1,2,1,2112,1,15_scotchtape,15_couch2,15,15,Big-visBig,1,1
01MMRowan04STROOP,1,2,2,2,1427,1,13_piano,13_rubberduck,13,13,Small-visBig,4,2
01MMRowan04STROOP,2,3,2,1,1119,1,20_wheelchair,20_ornament,20,20,Big-visBig,1,1
01MMRowan04STROOP,2,4,2,2,1239,1,11_controller,11_fountain13,11,11,Small-visBig,4,2
01MMRowan04STROOP,1,5,2,2,1473,1,04_tractor11,04_camera,4,4,Small-visBig,4,2
01MMRowan04STROOP,1,6,2,1,1172,1,07_dice,07_grill,7,7,Big-visBig,1,1
01MMRowan04STROOP,2,7,2,2,1593,1,06_cable,06_parthenon,6,6,Small-visBig,4,2
01MMRowan04STROOP,2,8,2,1,1247,1,10_bison,10_bowtiepasta,10,10,Big-visBig,1,1
01MMRowan04STROOP,2,9,2,1,887,1,07_grill,07_dice,7,7,Big-visBig,1,1
01MMRowan04STROOP,2,10,2,2,1089,1,02_seashell,02_carousel,2,2,Small-visBig,4,2
01MMRowan04STROOP,1,11,2,2,1537,1,06_parthenon,06_cable,6,6,Small-visBig,4,2
01MMRowan04STROOP,1,12,2,1,1070,1,18_ringbox03,18_hotairballoon,18,18,Big-visBig,1,1
01MMRowan04STROOP,1,13,2,2,1293,1,07_grill,07_dice,7,7,Small-visBig,4,2
01MMRowan04STROOP,2,14,2,1,1301,1,14_washingMachine,14_perfume,14,14,Big-visBig,1,1
01MMRowan04STROOP,2,15,2,2,997,1,09_mushroom,09_armchair,9,9,Small-visBig,4,2
01MMRowan04STROOP,1,16,2,1,2497,1,02_seashell,02_carousel,2,2,Big-visBig,1,1
01MMRowan04STROOP,1,17,2,2,1149,1,03_sofachair,03_baseball 2,3,3,Small-visBig,4,2
01MMRowan04STROOP,1,18,2,1,1069,1,19_garlic,19_refrigerator,19,19,Big-visBig,1,1
01MMRowan04STROOP,2,19,2,2,1147,1,08_changepurse,08_uprightpiano,8,8,Small-visBig,4,2
01MMRowan04STROOP,2,20,2,1,893,1,12_bookcase,12_pencil sharpener 5,12,12,Big-visBig,1,1
01MMRowan04STROOP,2,21,2,1,972,1,13_piano,13_rubberduck,13,13,Big-visBig,1,1
01MMRowan04STROOP,1,22,2,2,1179,1,08_uprightpiano,08_changepurse,8,8,Small-visBig,4,2
01MMRowan04STROOP,1,23,2,1,2786,1,01_apple,01_desk,1,1,Big-visBig,1,1
01MMRowan04STROOP,2,24,2,2,1069,1,17_pinecone,17_hotairballoon2,17,17,Small-visBig,4,2
01MMRowan04STROOP,2,25,2,2,1851,1,18_ringbox03,18_hotairballoon,18,18,Small-visBig,4,2
01MMRowan04STROOP,1,26,2,1,1118,1,16_clock,16_garbagecan,16,16,Big-visBig,1,1
01MMRowan04STROOP,2,27,2,1,1035,1,17_hotairballoon2,17_pinecone,17,17,Big-visBig,1,1
01MMRowan04STROOP,1,28,2,2,1371,1,17_hotairballoon2,17_pinecone,17,17,Small-visBig,4,2
01MMRowan04STROOP,1,29,2,2,1341,1,20_wheelchair,20_ornament,20,20,Small-visBig,4,2
01MMRowan04STROOP,2,30,2,2,1735,1,05_button,05_wagon,5,5,Small-visBig,4,2
01MMRowan04STROOP,1,31,2,1,1221,1,20_ornament,20_wheelchair,20,20,Big-visBig,1,1
01MMRowan04STROOP,2,32,2,1,1462,1,19_refrigerator,19_garlic,19,19,Big-visBig,1,1
01MMRowan04STROOP,2,33,2,1,1415,1,03_sofachair,03_baseball 2,3,3,Big-visBig,1,1
01MMRowan04STROOP,1,34,2,1,1174,1,10_bowtiepasta,10_bison,10,10,Big-visBig,1,1
01MMRowan04STROOP,1,35,2,2,1669,1,18_hotairballoon,18_ringbox03,18,18,Small-visBig,4,2
01MMRowan04STROOP,2,36,2,2,3218,1,10_bowtiepasta,10_bison,10,10,Small-visBig,4,2
01MMRowan04STROOP,2,37,2,1,1182,1,11_fountain13,11_controller,11,11,Big-visBig,1,1
01MMRowan04STROOP,1,38,2,2,1949,1,05_wagon,05_button,5,5,Small-visBig,4,2
01MMRowan04STROOP,2,39,2,2,3090,1,01_apple,01_desk,1,1,Small-visBig,4,2
01MMRowan04STROOP,1,40,2,1,934,1,14_perfume,14_washingMachine,14,14,Big-visBig,1,1
01MMRowan04STROOP,2,41,2,2,1146,1,19_garlic,19_refrigerator,19,19,Small-visBig,4,2
01MMRowan04STROOP,2,42,2,1,888,1,02_carousel,02_seashell,2,2,Big-visBig,1,1
01MMRowan04STROOP,1,43,2,2,2021,1,14_washingMachine,14_perfume,14,14,Small-visBig,4,2
01MMRowan04STROOP,1,44,2,1,1362,1,08_changepurse,08_uprightpiano,8,8,Big-visBig,1,1
01MMRowan04STROOP,1,45,2,2,1472,1,02_carousel,02_seashell,2,2,Small-visBig,4,2
01MMRowan04STROOP,2,46,2,1,1226,1,09_armchair,09_mushroom,9,9,Big-visBig,1,1
01MMRowan04STROOP,2,47,2,2,1245,1,07_dice,07_grill,7,7,Small-visBig,4,2
01MMRowan04STROOP,1,48,2,1,1308,0,04_camera,04_tractor11,4,4,Big-visBig,1,1
01MMRowan04STROOP,1,49,2,2,2853,1,10_bison,10_bowtiepasta,10,10,Small-visBig,4,2
01MMRowan04STROOP,2,50,2,1,1392,1,05_wagon,05_button,5,5,Big-visBig,1,1
01MMRowan04STROOP,2,51,2,2,1466,1,15_scotchtape,15_couch2,15,15,Small-visBig,4,2
01MMRowan04STROOP,1,52,2,1,1499,1,09_mushroom,09_armchair,9,9,Big-visBig,1,1
01MMRowan04STROOP,1,53,2,1,1150,1,17_pinecone,17_hotairballoon2,17,17,Big-visBig,1,1
01MMRowan04STROOP,2,54,2,1,1250,1,04_tractor11,04_camera,4,4,Big-visBig,1,1
01MMRowan04STROOP,2,55,2,2,1425,1,04_camera,04_tractor11,4,4,Small-visBig,4,2
01MMRowan04STROOP,1,56,2,2,1946,1,01_desk,01_apple,1,1,Small-visBig,4,2
01MMRowan04STROOP,2,57,2,1,1062,1,01_desk,01_apple,1,1,Big-visBig,1,1
01MMRowan04STROOP,1,58,2,1,2552,1,03_baseball 2,03_sofachair,3,3,Big-visBig,1,1
01MMRowan04STROOP,1,59,2,2,1741,1,19_refrigerator,19_garlic,19,19,Small-visBig,4,2
01MMRowan04STROOP,2,60,2,2,1333,1,16_clock,16_garbagecan,16,16,Small-visBig,4,2
01MMRowan04STROOP,1,61,2,2,1005,1,16_garbagecan,16_clock,16,16,Small-visBig,4,2
01MMRowan04STROOP,2,62,2,1,1265,1,16_garbagecan,16_clock,16,16,Big-visBig,1,1
01MMRowan04STROOP,1,63,2,1,1339,1,05_button,05_wagon,5,5,Big-visBig,1,1
01MMRowan04STROOP,2,64,2,2,1296,1,20_ornament,20_wheelchair,20,20,Small-visBig,4,2
01MMRowan04STROOP,1,65,2,1,982,1,12_pencil sharpener 5,12_bookcase,12,12,Big-visBig,1,1
01MMRowan04STROOP,2,66,2,2,1087,1,03_baseball 2,03_sofachair,3,3,Small-visBig,4,2
01MMRowan04STROOP,2,67,2,1,895,1,08_uprightpiano,08_changepurse,8,8,Big-visBig,1,1
01MMRowan04STROOP,1,68,2,2,1904,1,15_couch2,15_scotchtape,15,15,Small-visBig,4,2
01MMRowan04STROOP,1,69,2,1,1445,1,06_cable,06_parthenon,6,6,Big-visBig,1,1
01MMRowan04STROOP,2,70,2,2,1348,1,14_perfume,14_washingMachine,14,14,Small-visBig,4,2
01MMRowan04STROOP,2,71,2,1,1085,1,18_hotairballoon,18_ringbox03,18,18,Big-visBig,1,1
01MMRowan04STROOP,1,72,2,2,2291,1,11_fountain13,11_controller,11,11,Small-visBig,4,2
01MMRowan04STROOP,1,73,2,1,3363,1,11_controller,11_fountain13,11,11,Big-visBig,1,1
01MMRowan04STROOP,2,74,2,2,1869,1,12_pencil sharpener 5,12_bookcase,12,12,Small-visBig,4,2
01MMRowan04STROOP,1,75,2,2,1883,1,12_bookcase,12_pencil sharpener 5,12,12,Small-visBig,4,2
01MMRowan04STROOP,2,76,2,1,1010,1,06_parthenon,06_cable,6,6,Big-visBig,1,1
01MMRowan04STROOP,2,77,2,2,1100,1,13_rubberduck,13_piano,13,13,Small-visBig,4,2
01MMRowan04STROOP,2,78,2,1,1651,1,15_couch2,15_scotchtape,15,15,Big-visBig,1,1
01MMRowan04STROOP,1,79,2,2,855,1,09_armchair,09_mushroom,9,9,Small-visBig,4,2
01MMRowan04STROOP,1,80,2,1,1083,1,13_rubberduck,13_piano,13,13,Big-visBig,1,1
02MMJackson04STROOP,1,1,3,2,1662,1,02_carousel,02_seashell,2,2,Small-visBig,4,2
02MMJackson04STROOP,1,2,3,1,1473,1,02_seashell,02_carousel,2,2,Big-visBig,1,1
02MMJackson04STROOP,2,3,3,1,796,1,02_carousel,02_seashell,2,2,Big-visBig,1,1
02MMJackson04STROOP,2,4,3,2,1177,1,06_cable,06_parthenon,6,6,Small-visBig,4,2
02MMJackson04STROOP,2,5,3,2,1174,1,10_bowtiepasta,10_bison,10,10,Small-visBig,4,2
02MMJackson04STROOP,2,6,3,1,1296,1,20_wheelchair,20_ornament,20,20,Big-visBig,1,1
02MMJackson04STROOP,1,7,3,2,2030,1,14_washingMachine,14_perfume,14,14,Small-visBig,4,2
02MMJackson04STROOP,1,8,3,1,1064,1,15_scotchtape,15_couch2,15,15,Big-visBig,1,1
02MMJackson04STROOP,2,9,3,1,1034,1,04_tractor11,04_camera,4,4,Big-visBig,1,1
02MMJackson04STROOP,1,10,3,2,1066,1,12_bookcase,12_pencil sharpener 5,12,12,Small-visBig,4,2
02MMJackson04STROOP,2,11,3,2,1026,1,14_perfume,14_washingMachine,14,14,Small-visBig,4,2
02MMJackson04STROOP,1,12,3,1,1169,1,16_clock,16_garbagecan,16,16,Big-visBig,1,1
02MMJackson04STROOP,1,13,3,1,1322,1,01_apple,01_desk,1,1,Big-visBig,1,1
02MMJackson04STROOP,1,14,3,2,856,1,08_uprightpiano,08_changepurse,8,8,Small-visBig,4,2
02MMJackson04STROOP,2,15,3,2,895,1,17_pinecone,17_hotairballoon2,17,17,Small-visBig,4,2
02MMJackson04STROOP,2,16,3,1,1180,1,09_armchair,09_mushroom,9,9,Big-visBig,1,1
02MMJackson04STROOP,1,17,3,1,858,1,11_controller,11_fountain13,11,11,Big-visBig,1,1
02MMJackson04STROOP,1,18,3,2,795,1,06_parthenon,06_cable,6,6,Small-visBig,4,2
02MMJackson04STROOP,2,19,3,2,1033,1,15_scotchtape,15_couch2,15,15,Small-visBig,4,2
02MMJackson04STROOP,2,20,3,1,1139,1,10_bison,10_bowtiepasta,10,10,Big-visBig,1,1
02MMJackson04STROOP,1,21,3,1,912,1,07_dice,07_grill,7,7,Big-visBig,1,1
02MMJackson04STROOP,1,22,3,2,1115,1,13_piano,13_rubberduck,13,13,Small-visBig,4,2
02MMJackson04STROOP,2,23,3,1,1068,1,17_hotairballoon2,17_pinecone,17,17,Big-visBig,1,1
02MMJackson04STROOP,2,24,3,2,630,0,13_rubberduck,13_piano,13,13,Small-visBig,4,2
02MMJackson04STROOP,1,25,3,2,712,1,07_grill,07_dice,7,7,Small-visBig,4,2
02MMJackson04STROOP,2,26,3,1,890,1,03_sofachair,03_baseball 2,3,3,Big-visBig,1,1
02MMJackson04STROOP,1,27,3,1,787,1,20_ornament,20_wheelchair,20,20,Big-visBig,1,1
02MMJackson04STROOP,2,28,3,2,1105,1,04_camera,04_tractor11,4,4,Small-visBig,4,2
02MMJackson04STROOP,2,29,3,1,882,1,12_bookcase,12_pencil sharpener 5,12,12,Big-visBig,1,1
02MMJackson04STROOP,1,30,3,2,1077,0,01_desk,01_apple,1,1,Small-visBig,4,2
02MMJackson04STROOP,1,31,3,1,796,1,18_ringbox03,18_hotairballoon,18,18,Big-visBig,1,1
02MMJackson04STROOP,2,32,3,2,1031,1,01_apple,01_desk,1,1,Small-visBig,4,2
02MMJackson04STROOP,2,33,3,1,1510,1,06_parthenon,06_cable,6,6,Big-visBig,1,1
02MMJackson04STROOP,1,34,3,2,1528,1,15_couch2,15_scotchtape,15,15,Small-visBig,4,2
02MMJackson04STROOP,2,35,3,2,1081,1,11_controller,11_fountain13,11,11,Small-visBig,4,2
02MMJackson04STROOP,1,36,3,1,1182,1,13_rubberduck,13_piano,13,13,Big-visBig,1,1
02MMJackson04STROOP,2,37,3,1,1468,1,15_couch2,15_scotchtape,15,15,Big-visBig,1,1
02MMJackson04STROOP,1,38,3,1,1010,1,04_camera,04_tractor11,4,4,Big-visBig,1,1
02MMJackson04STROOP,1,39,3,2,5709,1,10_bison,10_bowtiepasta,10,10,Small-visBig,4,2
02MMJackson04STROOP,2,40,3,2,1095,1,19_garlic,19_refrigerator,19,19,Small-visBig,4,2
02MMJackson04STROOP,2,41,3,1,1265,1,18_hotairballoon,18_ringbox03,18,18,Big-visBig,1,1
02MMJackson04STROOP,1,42,3,1,1551,1,14_perfume,14_washingMachine,14,14,Big-visBig,1,1
02MMJackson04STROOP,1,43,3,2,694,1,05_wagon,05_button,5,5,Small-visBig,4,2
02MMJackson04STROOP,2,44,3,2,1466,1,02_seashell,02_carousel,2,2,Small-visBig,4,2
02MMJackson04STROOP,1,45,3,1,1148,1,10_bowtiepasta,10_bison,10,10,Big-visBig,1,1
02MMJackson04STROOP,1,46,3,2,1192,0,03_sofachair,03_baseball 2,3,3,Small-visBig,4,2
02MMJackson04STROOP,2,47,3,2,832,1,12_pencil sharpener 5,12_bookcase,12,12,Small-visBig,4,2
02MMJackson04STROOP,2,48,3,1,746,1,14_washingMachine,14_perfume,14,14,Big-visBig,1,1
02MMJackson04STROOP,2,49,3,2,1114,1,09_mushroom,09_armchair,9,9,Small-visBig,4,2
02MMJackson04STROOP,1,50,3,2,1036,1,20_wheelchair,20_ornament,20,20,Small-visBig,4,2
02MMJackson04STROOP,1,51,3,1,1047,1,08_changepurse,08_uprightpiano,8,8,Big-visBig,1,1
02MMJackson04STROOP,2,52,3,1,898,1,08_uprightpiano,08_changepurse,8,8,Big-visBig,1,1
02MMJackson04STROOP,1,53,3,2,1339,1,04_tractor11,04_camera,4,4,Small-visBig,4,2
02MMJackson04STROOP,2,54,3,2,1684,1,07_dice,07_grill,7,7,Small-visBig,4,2
02MMJackson04STROOP,1,55,3,1,1103,1,19_garlic,19_refrigerator,19,19,Big-visBig,1,1
02MMJackson04STROOP,2,56,3,1,958,1,11_fountain13,11_controller,11,11,Big-visBig,1,1
02MMJackson04STROOP,1,57,3,1,1037,0,06_cable,06_parthenon,6,6,Big-visBig,1,1
02MMJackson04STROOP,2,58,3,1,804,1,07_grill,07_dice,7,7,Big-visBig,1,1
02MMJackson04STROOP,2,59,3,2,902,0,18_ringbox03,18_hotairballoon,18,18,Small-visBig,4,2
02MMJackson04STROOP,1,60,3,2,896,1,17_hotairballoon2,17_pinecone,17,17,Small-visBig,4,2
02MMJackson04STROOP,1,61,3,2,1246,0,18_hotairballoon,18_ringbox03,18,18,Small-visBig,4,2
02MMJackson04STROOP,2,62,3,2,1212,1,16_clock,16_garbagecan,16,16,Small-visBig,4,2
02MMJackson04STROOP,1,63,3,1,1273,1,03_baseball 2,03_sofachair,3,3,Big-visBig,1,1
02MMJackson04STROOP,2,64,3,1,902,1,13_piano,13_rubberduck,13,13,Big-visBig,1,1
02MMJackson04STROOP,1,65,3,2,1140,1,09_armchair,09_mushroom,9,9,Small-visBig,4,2
02MMJackson04STROOP,2,66,3,2,1053,1,20_ornament,20_wheelchair,20,20,Small-visBig,4,2
02MMJackson04STROOP,1,67,3,1,879,1,12_pencil sharpener 5,12_bookcase,12,12,Big-visBig,1,1
02MMJackson04STROOP,2,68,3,1,886,1,05_wagon,05_button,5,5,Big-visBig,1,1
02MMJackson04STROOP,2,69,3,2,1300,1,03_baseball 2,03_sofachair,3,3,Small-visBig,4,2
02MMJackson04STROOP,2,70,3,1,1070,1,19_refrigerator,19_garlic,19,19,Big-visBig,1,1
02MMJackson04STROOP,1,71,3,1,1846,1,17_pinecone,17_hotairballoon2,17,17,Big-visBig,1,1
02MMJackson04STROOP,1,72,3,2,752,1,16_garbagecan,16_clock,16,16,Small-visBig,4,2
02MMJackson04STROOP,1,73,3,1,913,1,09_mushroom,09_armchair,9,9,Big-visBig,1,1
02MMJackson04STROOP,1,74,3,2,1437,0,19_refrigerator,19_garlic,19,19,Small-visBig,4,2
02MMJackson04STROOP,2,75,3,1,1228,1,16_garbagecan,16_clock,16,16,Big-visBig,1,1
02MMJackson04STROOP,2,76,3,2,1140,1,08_changepurse,08_uprightpiano,8,8,Small-visBig,4,2
02MMJackson04STROOP,1,77,3,1,759,1,05_button,05_wagon,5,5,Big-visBig,1,1
02MMJackson04STROOP,2,78,3,2,736,0,05_button,05_wagon,5,5,Small-visBig,4,2
02MMJackson04STROOP,1,79,3,2,710,0,11_fountain13,11_controller,11,11,Small-visBig,4,2
02MMJackson04STROOP,2,80,3,1,1010,1,01_desk,01_apple,1,1,Big-visBig,1,1
03MMDaniel05STROOP,2,1,4,2,2222,1,08_changepurse,08_uprightpiano,8,8,Small-visBig,4,2
03MMDaniel05STROOP,2,2,4,1,1106,1,05_wagon,05_button,5,5,Big-visBig,1,1
03MMDaniel05STROOP,1,3,4,2,1528,1,06_parthenon,06_cable,6,6,Small-visBig,4,2
03MMDaniel05STROOP,1,4,4,1,1855,1,09_mushroom,09_armchair,9,9,Big-visBig,1,1
03MMDaniel05STROOP,2,5,4,2,5645,1,02_seashell,02_carousel,2,2,Small-visBig,4,2
03MMDaniel05STROOP,2,6,4,1,7982,0,10_bison,10_bowtiepasta,10,10,Big-visBig,1,1
03MMDaniel05STROOP,1,7,4,1,2932,1,10_bowtiepasta,10_bison,10,10,Big-visBig,1,1
03MMDaniel05STROOP,1,8,4,2,10321,1,04_tractor11,04_camera,4,4,Small-visBig,4,2
03MMDaniel05STROOP,2,9,4,2,2571,1,12_pencil sharpener 5,12_bookcase,12,12,Small-visBig,4,2
03MMDaniel05STROOP,1,10,4,2,772,1,07_grill,07_dice,7,7,Small-visBig,4,2
03MMDaniel05STROOP,1,11,4,1,885,1,20_ornament,20_wheelchair,20,20,Big-visBig,1,1
03MMDaniel05STROOP,2,12,4,1,3904,1,09_armchair,09_mushroom,9,9,Big-visBig,1,1
03MMDaniel05STROOP,1,13,4,1,2984,1,02_seashell,02_carousel,2,2,Big-visBig,1,1
03MMDaniel05STROOP,2,14,4,2,809,0,01_apple,01_desk,1,1,Small-visBig,4,2
03MMDaniel05STROOP,2,15,4,1,3492,1,08_uprightpiano,08_changepurse,8,8,Big-visBig,1,1
03MMDaniel05STROOP,1,16,4,2,2493,1,11_fountain13,11_controller,11,11,Small-visBig,4,2
03MMDaniel05STROOP,1,17,4,1,2738,1,05_button,05_wagon,5,5,Big-visBig,1,1
03MMDaniel05STROOP,2,18,4,2,3740,1,17_pinecone,17_hotairballoon2,17,17,Small-visBig,4,2
03MMDaniel05STROOP,2,19,4,1,1437,1,19_refrigerator,19_garlic,19,19,Big-visBig,1,1
03MMDaniel05STROOP,1,20,4,2,1416,1,16_garbagecan,16_clock,16,16,Small-visBig,4,2
03MMDaniel05STROOP,2,21,4,2,1581,1,03_baseball 2,03_sofachair,3,3,Small-visBig,4,2
03MMDaniel05STROOP,2,22,4,1,1365,1,15_couch2,15_scotchtape,15,15,Big-visBig,1,1
03MMDaniel05STROOP,1,23,4,2,1923,1,09_armchair,09_mushroom,9,9,Small-visBig,4,2
03MMDaniel05STROOP,1,24,4,1,1852,1,11_controller,11_fountain13,11,11,Big-visBig,1,1
03MMDaniel05STROOP,1,25,4,1,1267,1,12_pencil sharpener 5,12_bookcase,12,12,Big-visBig,1,1
03MMDaniel05STROOP,1,26,4,2,2205,1,10_bison,10_bowtiepasta,10,10,Small-visBig,4,2
03MMDaniel05STROOP,2,27,4,2,2842,1,15_scotchtape,15_couch2,15,15,Small-visBig,4,2
03MMDaniel05STROOP,2,28,4,1,2085,1,14_washingMachine,14_perfume,14,14,Big-visBig,1,1
03MMDaniel05STROOP,2,29,4,1,3501,1,04_tractor11,04_camera,4,4,Big-visBig,1,1
03MMDaniel05STROOP,2,30,4,2,2399,1,14_perfume,14_washingMachine,14,14,Small-visBig,4,2
03MMDaniel05STROOP,1,31,4,1,1502,1,14_perfume,14_washingMachine,14,14,Big-visBig,1,1
03MMDaniel05STROOP,1,32,4,2,2194,1,02_carousel,02_seashell,2,2,Small-visBig,4,2
03MMDaniel05STROOP,2,33,4,1,568,1,16_garbagecan,16_clock,16,16,Big-visBig,1,1
03MMDaniel05STROOP,1,34,4,2,1594,1,18_hotairballoon,18_ringbox03,18,18,Small-visBig,4,2
03MMDaniel05STROOP,1,35,4,1,20261,1,06_cable,06_parthenon,6,6,Big-visBig,1,1
03MMDaniel05STROOP,2,36,4,2,1618,1,05_button,05_wagon,5,5,Small-visBig,4,2
03MMDaniel05STROOP,1,37,4,1,1205,1,08_changepurse,08_uprightpiano,8,8,Big-visBig,1,1
03MMDaniel05STROOP,2,38,4,2,1353,1,19_garlic,19_refrigerator,19,19,Small-visBig,4,2
04logan44,2,1,5,2,3153,1,13_rubberduck,13_piano,13,13,Small-visBig,4,2
04logan44,1,2,5,1,1758,1,14_perfume,14_washingMachine,14,14,Big-visBig,1,1
04logan44,2,3,5,1,1304,1,20_wheelchair,20_ornament,20,20,Big-visBig,1,1
04logan44,1,4,5,2,2559,1,06_parthenon,06_cable,6,6,Small-visBig,4,2
04logan44,1,5,5,1,5064,1,04_camera,04_tractor11,4,4,Big-visBig,1,1
04logan44,2,6,5,1,2877,1,17_hotairballoon2,17_pinecone,17,17,Big-visBig,1,1
04logan44,1,7,5,2,5938,0,13_piano,13_rubberduck,13,13,Small-visBig,4,2
04logan44,2,8,5,2,4126,0,09_mushroom,09_armchair,9,9,Small-visBig,4,2
04logan44,2,9,5,2,984,1,14_perfume,14_washingMachine,14,14,Small-visBig,4,2
04logan44,1,10,5,1,1052,1,16_clock,16_garbagecan,16,16,Big-visBig,1,1
04logan44,2,11,5,1,1606,1,03_sofachair,03_baseball 2,3,3,Big-visBig,1,1
04logan44,1,12,5,2,3018,1,10_bison,10_bowtiepasta,10,10,Small-visBig,4,2
04logan44,1,13,5,2,1263,1,07_grill,07_dice,7,7,Small-visBig,4,2
04logan44,2,14,5,2,1043,1,08_changepurse,08_uprightpiano,8,8,Small-visBig,4,2
04logan44,2,15,5,1,5269,0,16_garbagecan,16_clock,16,16,Big-visBig,1,1
04logan44,1,16,5,1,8966,1,13_rubberduck,13_piano,13,13,Big-visBig,1,1
04logan44,1,17,5,1,2022,1,17_pinecone,17_hotairballoon2,17,17,Big-visBig,1,1
04logan44,1,18,5,2,3258,1,04_tractor11,04_camera,4,4,Small-visBig,4,2
04logan44,2,19,5,1,3766,1,11_fountain13,11_controller,11,11,Big-visBig,1,1
04logan44,2,20,5,2,1469,1,16_clock,16_garbagecan,16,16,Small-visBig,4,2
04logan44,2,21,5,2,1325,1,06_cable,06_parthenon,6,6,Small-visBig,4,2
04logan44,1,22,5,1,1991,1,09_mushroom,09_armchair,9,9,Big-visBig,1,1
04logan44,2,23,5,1,2507,1,14_washingMachine,14_perfume,14,14,Big-visBig,1,1
04logan44,1,24,5,2,2592,1,18_hotairballoon,18_ringbox03,18,18,Small-visBig,4,2
04logan44,1,25,5,1,2016,1,08_changepurse,08_uprightpiano,8,8,Big-visBig,1,1
04logan44,2,26,5,2,1684,1,20_ornament,20_wheelchair,20,20,Small-visBig,4,2
04logan44,1,27,5,2,1368,1,16_garbagecan,16_clock,16,16,Small-visBig,4,2
04logan44,2,28,5,1,1765,0,06_parthenon,06_cable,6,6,Big-visBig,1,1
04logan44,2,29,5,1,2952,0,19_refrigerator,19_garlic,19,19,Big-visBig,1,1
04logan44,1,30,5,2,1826,1,12_bookcase,12_pencil sharpener 5,12,12,Small-visBig,4,2
04logan44,2,31,5,2,1036,1,19_garlic,19_refrigerator,19,19,Small-visBig,4,2
04logan44,1,32,5,1,2270,0,02_seashell,02_carousel,2,2,Big-visBig,1,1
04logan44,1,33,5,2,3058,0,17_hotairballoon2,17_pinecone,17,17,Small-visBig,4,2
04logan44,2,34,5,2,1155,0,11_controller,11_fountain13,11,11,Small-visBig,4,2
04logan44,1,35,5,1,1633,1,03_baseball 2,03_sofachair,3,3,Big-visBig,1,1
04logan44,2,36,5,2,1317,1,17_pinecone,17_hotairballoon2,17,17,Small-visBig,4,2
04logan44,1,37,5,1,2787,1,10_bowtiepasta,10_bison,10,10,Big-visBig,1,1
04logan44,2,38,5,1,1816,1,10_bison,10_bowtiepasta,10,10,Big-visBig,1,1
04logan44,1,39,5,2,2299,1,14_washingMachine,14_perfume,14,14,Small-visBig,4,2
04logan44,1,40,5,2,1945,0,05_wagon,05_button,5,5,Small-visBig,4,2
04logan44,2,41,5,1,1473,1,04_tractor11,04_camera,4,4,Big-visBig,1,1
04logan44,2,42,5,2,2191,1,03_baseball 2,03_sofachair,3,3,Small-visBig,4,2
04logan44,1,43,5,1,2410,1,01_apple,01_desk,1,1,Big-visBig,1,1
04logan44,1,44,5,2,4829,1,02_carousel,02_seashell,2,2,Small-visBig,4,2
04logan44,1,45,5,1,14321,1,15_scotchtape,15_couch2,15,15,Big-visBig,1,1
04logan44,2,46,5,1,3494,1,02_carousel,02_seashell,2,2,Big-visBig,1,1
04logan44,2,47,5,2,1555,1,02_seashell,02_carousel,2,2,Small-visBig,4,2
04logan44,1,48,5,1,1676,1,07_dice,07_grill,7,7,Big-visBig,1,1
04logan44,2,49,5,2,1404,0,07_dice,07_grill,7,7,Small-visBig,4,2
04logan44,2,50,5,1,2045,1,05_wagon,05_button,5,5,Big-visBig,1,1
04logan44,1,51,5,2,2015,1,09_armchair,09_mushroom,9,9,Small-visBig,4,2
04logan44,1,52,5,1,6761,1,19_garlic,19_refrigerator,19,19,Big-visBig,1,1
04miraStroop,1,1,6,2,14487,1,19_refrigerator,19_garlic,19,19,Small-visBig,4,2
04miraStroop,1,2,6,1,4579,1,10_bowtiepasta,10_bison,10,10,Big-visBig,1,1
04miraStroop,2,3,6,2,3019,1,13_rubberduck,13_piano,13,13,Small-visBig,4,2
04miraStroop,2,4,6,1,6643,1,07_grill,07_dice,7,7,Big-visBig,1,1
04miraStroop,2,5,6,1,4836,1,04_tractor11,04_camera,4,4,Big-visBig,1,1
04miraStroop,1,6,6,2,2148,1,11_fountain13,11_controller,11,11,Small-visBig,4,2
04miraStroop,2,7,6,2,1583,1,02_seashell,02_carousel,2,2,Small-visBig,4,2
04miraStroop,1,8,6,1,1404,1,18_ringbox03,18_hotairballoon,18,18,Big-visBig,1,1
04miraStroop,1,9,6,2,4683,1,05_wagon,05_button,5,5,Small-visBig,4,2
04miraStroop,2,10,6,2,1516,1,14_perfume,14_washingMachine,14,14,Small-visBig,4,2
04miraStroop,2,11,6,1,1760,1,01_desk,01_apple,1,1,Big-visBig,1,1
04miraStroop,1,12,6,1,1501,1,17_pinecone,17_hotairballoon2,17,17,Big-visBig,1,1
04miraStroop,1,13,6,1,5777,1,07_dice,07_grill,7,7,Big-visBig,1,1
04miraStroop,1,14,6,2,1827,1,15_couch2,15_scotchtape,15,15,Small-visBig,4,2
04miraStroop,2,15,6,1,2951,0,19_refrigerator,19_garlic,19,19,Big-visBig,1,1
04miraStroop,2,16,6,2,3224,1,15_scotchtape,15_couch2,15,15,Small-visBig,4,2
04miraStroop,1,17,6,2,4662,1,18_hotairballoon,18_ringbox03,18,18,Small-visBig,4,2
04miraStroop,2,18,6,1,2513,1,08_uprightpiano,08_changepurse,8,8,Big-visBig,1,1
04miraStroop,1,19,6,1,12541,1,03_baseball 2,03_sofachair,3,3,Big-visBig,1,1
04miraStroop,2,20,6,2,4826,1,03_baseball 2,03_sofachair,3,3,Small-visBig,4,2
04miraStroop,1,21,6,1,1794,1,16_clock,16_garbagecan,16,16,Big-visBig,1,1
04miraStroop,2,22,6,1,2121,0,03_sofachair,03_baseball 2,3,3,Big-visBig,1,1
04miraStroop,2,23,6,2,1504,1,06_cable,06_parthenon,6,6,Small-visBig,4,2
04miraStroop,1,24,6,2,1330,1,10_bison,10_bowtiepasta,10,10,Small-visBig,4,2
04miraStroop,1,25,6,2,1475,1,04_tractor11,04_camera,4,4,Small-visBig,4,2
04miraStroop,2,26,6,2,1778,1,16_clock,16_garbagecan,16,16,Small-visBig,4,2
04miraStroop,1,27,6,1,4774,1,02_seashell,02_carousel,2,2,Big-visBig,1,1
04miraStroop,2,28,6,1,1238,1,13_piano,13_rubberduck,13,13,Big-visBig,1,1
04miraStroop,2,29,6,2,5881,1,09_mushroom,09_armchair,9,9,Small-visBig,4,2
04miraStroop,1,30,6,1,1805,0,09_mushroom,09_armchair,9,9,Big-visBig,1,1
04miraStroop,2,31,6,1,3778,1,15_couch2,15_scotchtape,15,15,Big-visBig,1,1
04miraStroop,1,32,6,2,2030,1,06_parthenon,06_cable,6,6,Small-visBig,4,2
04miraStroop,2,33,6,2,1883,1,12_pencil sharpener 5,12_bookcase,12,12,Small-visBig,4,2
04miraStroop,2,34,6,1,3372,1,05_wagon,05_button,5,5,Big-visBig,1,1
04miraStroop,1,35,6,1,5575,1,11_controller,11_fountain13,11,11,Big-visBig,1,1
04miraStroop,1,36,6,2,2049,1,14_washingMachine,14_perfume,14,14,Small-visBig,4,2
04miraStroop,1,37,6,1,4203,1,01_apple,01_desk,1,1,Big-visBig,1,1
04miraStroop,2,38,6,2,3546,1,07_dice,07_grill,7,7,Small-visBig,4,2
04miraStroop,2,39,6,1,3312,1,20_wheelchair,20_ornament,20,20,Big-visBig,1,1
04miraStroop,1,40,6,2,11574,1,12_bookcase,12_pencil sharpener 5,12,12,Small-visBig,4,2
04miraStroop,2,41,6,1,3026,1,11_fountain13,11_controller,11,11,Big-visBig,1,1
04miraStroop,2,42,6,2,2925,1,17_pinecone,17_hotairballoon2,17,17,Small-visBig,4,2
04miraStroop,1,43,6,1,7699,1,12_pencil sharpener 5,12_bookcase,12,12,Big-visBig,1,1
04miraStroop,1,44,6,2,5629,1,02_carousel,02_seashell,2,2,Small-visBig,4,2
04miraStroop,2,45,6,1,1843,1,06_parthenon,06_cable,6,6,Big-visBig,1,1
04miraStroop,1,46,6,2,2577,1,17_hotairballoon2,17_pinecone,17,17,Small-visBig,4,2
04miraStroop,1,47,6,1,2385,1,19_garlic,19_refrigerator,19,19,Big-visBig,1,1
04miraStroop,2,48,6,2,1395,1,01_apple,01_desk,1,1,Small-visBig,4,2
04miraStroop,2,49,6,2,1665,1,11_controller,11_fountain13,11,11,Small-visBig,4,2
04miraStroop,2,50,6,1,4379,1,10_bison,10_bowtiepasta,10,10,Big-visBig,1,1
04miraStroop,1,51,6,2,4282,1,03_sofachair,03_baseball 2,3,3,Small-visBig,4,2
04miraStroop,1,52,6,1,2198,1,20_ornament,20_wheelchair,20,20,Big-visBig,1,1
04miraStroop,1,53,6,1,2723,1,06_cable,06_parthenon,6,6,Big-visBig,1,1
04miraStroop,1,54,6,2,2897,1,20_wheelchair,20_ornament,20,20,Small-visBig,4,2
04miraStroop,2,55,6,1,1820,1,12_bookcase,12_pencil sharpener 5,12,12,Big-visBig,1,1
04miraStroop,2,56,6,2,2435,1,10_bowtiepasta,10_bison,10,10,Small-visBig,4,2
04miraStroop,2,57,6,1,2445,1,14_washingMachine,14_perfume,14,14,Big-visBig,1,1
04miraStroop,2,58,6,2,2767,1,04_camera,04_tractor11,4,4,Small-visBig,4,2
04miraStroop,1,59,6,1,1849,1,15_scotchtape,15_couch2,15,15,Big-visBig,1,1
04miraStroop,1,60,6,2,2348,1,01_desk,01_apple,1,1,Small-visBig,4,2
04miraStroop,2,61,6,1,3156,1,17_hotairballoon2,17_pinecone,17,17,Big-visBig,1,1
04miraStroop,1,62,6,2,2325,1,09_armchair,09_mushroom,9,9,Small-visBig,4,2
04miraStroop,1,63,6,1,3853,1,13_rubberduck,13_piano,13,13,Big-visBig,1,1
04miraStroop,2,64,6,2,2734,1,19_garlic,19_refrigerator,19,19,Small-visBig,4,2
04miraStroop,1,65,6,2,1363,1,08_uprightpiano,08_changepurse,8,8,Small-visBig,4,2
04miraStroop,1,66,6,1,2092,1,04_camera,04_tractor11,4,4,Big-visBig,1,1
04miraStroop,2,67,6,2,3454,1,18_ringbox03,18_hotairballoon,18,18,Small-visBig,4,2
04miraStroop,2,68,6,1,1793,1,16_garbagecan,16_clock,16,16,Big-visBig,1,1
04miraStroop,1,69,6,1,6235,1,08_changepurse,08_uprightpiano,8,8,Big-visBig,1,1
04miraStroop,2,70,6,2,2617,1,08_changepurse,08_uprightpiano,8,8,Small-visBig,4,2
04miraStroop,1,71,6,2,4292,1,13_piano,13_rubberduck,13,13,Small-visBig,4,2
04miraStroop,2,72,6,1,4365,1,02_carousel,02_seashell,2,2,Big-visBig,1,1
04miraStroop,1,73,6,1,18431,1,05_button,05_wagon,5,5,Big-visBig,1,1
04miraStroop,2,74,6,1,1910,1,18_hotairballoon,18_ringbox03,18,18,Big-visBig,1,1
04miraStroop,2,75,6,2,3178,1,20_ornament,20_wheelchair,20,20,Small-visBig,4,2
04Nolan45stroop,2,1,7,1,4892,1,13_piano,13_rubberduck,13,13,Big-visBig,1,1
04Nolan45stroop,2,2,7,2,3422,1,13_rubberduck,13_piano,13,13,Small-visBig,4,2
04Nolan45stroop,1,3,7,2,2295,1,03_sofachair,03_baseball 2,3,3,Small-visBig,4,2
04Nolan45stroop,1,4,7,1,2742,1,01_apple,01_desk,1,1,Big-visBig,1,1
04Nolan45stroop,1,5,7,1,4036,1,06_cable,06_parthenon,6,6,Big-visBig,1,1
04Nolan45stroop,2,6,7,2,1562,1,09_mushroom,09_armchair,9,9,Small-visBig,4,2
04Nolan45stroop,2,7,7,1,3437,1,10_bison,10_bowtiepasta,10,10,Big-visBig,1,1
04Nolan45stroop,1,8,7,2,2418,1,19_refrigerator,19_garlic,19,19,Small-visBig,4,2
04Nolan45stroop,1,9,7,2,2849,1,20_wheelchair,20_ornament,20,20,Small-visBig,4,2
04Nolan45stroop,1,10,7,1,2231,1,11_controller,11_fountain13,11,11,Big-visBig,1,1
04Nolan45stroop,2,11,7,2,2750,1,20_ornament,20_wheelchair,20,20,Small-visBig,4,2
04Nolan45stroop,2,12,7,1,3425,1,20_wheelchair,20_ornament,20,20,Big-visBig,1,1
04Nolan45stroop,1,13,7,1,3255,1,02_seashell,02_carousel,2,2,Big-visBig,1,1
04Nolan45stroop,1,14,7,2,2784,1,08_uprightpiano,08_changepurse,8,8,Small-visBig,4,2
04Nolan45stroop,2,15,7,1,6951,1,07_grill,07_dice,7,7,Big-visBig,1,1
04Nolan45stroop,2,16,7,2,5680,1,17_pinecone,17_hotairballoon2,17,17,Small-visBig,4,2
04Nolan45stroop,1,17,7,1,2416,1,14_perfume,14_washingMachine,14,14,Big-visBig,1,1
04Nolan45stroop,1,18,7,2,3345,1,11_fountain13,11_controller,11,11,Small-visBig,4,2
04Nolan45stroop,2,19,7,1,2592,1,03_sofachair,03_baseball 2,3,3,Big-visBig,1,1
04Nolan45stroop,2,20,7,2,2067,1,11_controller,11_fountain13,11,11,Small-visBig,4,2
04Nolan45stroop,1,21,7,2,1691,1,05_wagon,05_button,5,5,Small-visBig,4,2
04Nolan45stroop,2,22,7,2,2173,1,06_cable,06_parthenon,6,6,Small-visBig,4,2
04Nolan45stroop,1,23,7,1,3516,1,10_bowtiepasta,10_bison,10,10,Big-visBig,1,1
04Nolan45stroop,2,24,7,1,3425,1,09_armchair,09_mushroom,9,9,Big-visBig,1,1
04Nolan45stroop,1,25,7,1,4313,1,07_dice,07_grill,7,7,Big-visBig,1,1
04Nolan45stroop,2,26,7,2,1594,1,19_garlic,19_refrigerator,19,19,Small-visBig,4,2
04Nolan45stroop,2,27,7,1,1597,0,11_fountain13,11_controller,11,11,Big-visBig,1,1
04Nolan45stroop,1,28,7,2,2391,1,17_hotairballoon2,17_pinecone,17,17,Small-visBig,4,2
04Nolan45stroop,2,29,7,2,2618,1,02_seashell,02_carousel,2,2,Small-visBig,4,2
04Nolan45stroop,2,30,7,1,3116,1,15_couch2,15_scotchtape,15,15,Big-visBig,1,1
04Nolan45stroop,1,31,7,1,3230,1,18_ringbox03,18_hotairballoon,18,18,Big-visBig,1,1
04Nolan45stroop,1,32,7,2,2852,1,04_tractor11,04_camera,4,4,Small-visBig,4,2
04Nolan45stroop,2,33,7,1,2837,1,14_washingMachine,14_perfume,14,14,Big-visBig,1,1
04Nolan45stroop,1,34,7,1,3125,1,16_clock,16_garbagecan,16,16,Big-visBig,1,1
04Nolan45stroop,2,35,7,2,5752,1,03_baseball 2,03_sofachair,3,3,Small-visBig,4,2
04Nolan45stroop,1,36,7,2,7891,1,18_hotairballoon,18_ringbox03,18,18,Small-visBig,4,2
04Nolan45stroop,1,37,7,1,1368,1,20_ornament,20_wheelchair,20,20,Big-visBig,1,1
04Nolan45stroop,2,38,7,2,2708,1,01_apple,01_desk,1,1,Small-visBig,4,2
04Nolan45stroop,2,39,7,1,3236,1,08_uprightpiano,08_changepurse,8,8,Big-visBig,1,1
04Nolan45stroop,1,40,7,2,5019,1,15_couch2,15_scotchtape,15,15,Small-visBig,4,2
04Nolan45stroop,1,41,7,1,3936,1,09_mushroom,09_armchair,9,9,Big-visBig,1,1
04Nolan45stroop,2,42,7,2,1841,1,18_ringbox03,18_hotairballoon,18,18,Small-visBig,4,2
04Nolan45stroop,2,43,7,1,5734,1,01_desk,01_apple,1,1,Big-visBig,1,1
04Nolan45stroop,1,44,7,2,1453,1,01_desk,01_apple,1,1,Small-visBig,4,2
04Nolan45stroop,2,45,7,2,2372,1,12_pencil sharpener 5,12_bookcase,12,12,Small-visBig,4,2
04Nolan45stroop,2,46,7,1,3331,1,12_bookcase,12_pencil sharpener 5,12,12,Big-visBig,1,1
04Nolan45stroop,1,47,7,2,3173,1,10_bison,10_bowtiepasta,10,10,Small-visBig,4,2
04Nolan45stroop,1,48,7,1,6551,1,13_rubberduck,13_piano,13,13,Big-visBig,1,1
04Nolan45stroop,1,49,7,1,2898,1,12_pencil sharpener 5,12_bookcase,12,12,Big-visBig,1,1
04Nolan45stroop,2,50,7,1,3596,1,06_parthenon,06_cable,6,6,Big-visBig,1,1
04Nolan45stroop,1,51,7,2,2312,1,14_washingMachine,14_perfume,14,14,Small-visBig,4,2
04Nolan45stroop,2,52,7,2,1982,1,14_perfume,14_washingMachine,14,14,Small-visBig,4,2
04Nolan45stroop,2,53,7,2,1478,1,08_changepurse,08_uprightpiano,8,8,Small-visBig,4,2
04Nolan45stroop,2,54,7,1,1223,1,04_tractor11,04_camera,4,4,Big-visBig,1,1
04Nolan45stroop,1,55,7,2,3018,1,02_carousel,02_seashell,2,2,Small-visBig,4,2
04Nolan45stroop,1,56,7,1,1617,1,17_pinecone,17_hotairballoon2,17,17,Big-visBig,1,1
04Nolan45stroop,2,57,7,1,1385,1,16_garbagecan,16_clock,16,16,Big-visBig,1,1
04Nolan45stroop,1,58,7,2,2363,1,16_garbagecan,16_clock,16,16,Small-visBig,4,2
04Nolan45stroop,2,59,7,2,2103,1,15_scotchtape,15_couch2,15,15,Small-visBig,4,2
04Nolan45stroop,1,60,7,1,1958,1,03_baseball 2,03_sofachair,3,3,Big-visBig,1,1
04Nolan45stroop,2,61,7,1,1385,1,18_hotairballoon,18_ringbox03,18,18,Big-visBig,1,1
04Nolan45stroop,1,62,7,1,1904,1,19_garlic,19_refrigerator,19,19,Big-visBig,1,1
04Nolan45stroop,2,63,7,2,1840,1,16_clock,16_garbagecan,16,16,Small-visBig,4,2
04Nolan45stroop,1,64,7,2,2304,1,06_parthenon,06_cable,6,6,Small-visBig,4,2
04Nolan45stroop,1,65,7,1,2887,1,04_camera,04_tractor11,4,4,Big-visBig,1,1
04Nolan45stroop,1,66,7,2,2400,1,07_grill,07_dice,7,7,Small-visBig,4,2
04Nolan45stroop,2,67,7,1,1335,1,19_refrigerator,19_garlic,19,19,Big-visBig,1,1
04Nolan45stroop,2,68,7,2,3300,1,07_dice,07_grill,7,7,Small-visBig,4,2
04Nolan45stroop,1,69,7,1,1833,1,15_scotchtape,15_couch2,15,15,Big-visBig,1,1
04Nolan45stroop,1,70,7,2,1760,1,12_bookcase,12_pencil sharpener 5,12,12,Small-visBig,4,2
04Nolan45stroop,2,71,7,2,2928,1,10_bowtiepasta,10_bison,10,10,Small-visBig,4,2
04Nolan45stroop,2,72,7,1,3833,1,02_carousel,02_seashell,2,2,Big-visBig,1,1
04Nolan45stroop,1,73,7,2,2009,1,09_armchair,09_mushroom,9,9,Small-visBig,4,2
04Nolan45stroop,1,74,7,1,2145,1,05_button,05_wagon,5,5,Big-visBig,1,1
04Nolan45stroop,2,75,7,2,1424,1,04_camera,04_tractor11,4,4,Small-visBig,4,2
04Nolan45stroop,2,76,7,1,994,1,17_hotairballoon2,17_pinecone,17,17,Big-visBig,1,1
04Nolan45stroop,2,77,7,1,3540,1,05_wagon,05_button,5,5,Big-visBig,1,1
04Nolan45stroop,2,78,7,2,2000,1,05_button,05_wagon,5,5,Small-visBig,4,2
04Nolan45stroop,1,79,7,2,2919,1,13_piano,13_rubberduck,13,13,Small-visBig,4,2
04Nolan45stroop,1,80,7,1,3197,1,08_changepurse,08_uprightpiano,8,8,Big-visBig,1,1
05George47,1,1,8,2,3541,1,04_tractor11,04_camera,4,4,Small-visBig,4,2
05George47,2,2,8,2,1519,1,01_apple,01_desk,1,1,Small-visBig,4,2
05George47,2,3,8,1,1972,1,04_tractor11,04_camera,4,4,Big-visBig,1,1
05George47,1,4,8,1,2395,1,11_controller,11_fountain13,11,11,Big-visBig,1,1
05George47,2,5,8,2,1653,1,19_garlic,19_refrigerator,19,19,Small-visBig,4,2
05George47,1,6,8,2,1613,1,08_uprightpiano,08_changepurse,8,8,Small-visBig,4,2
05George47,1,7,8,1,1753,1,18_ringbox03,18_hotairballoon,18,18,Big-visBig,1,1
05George47,2,8,8,1,2221,1,18_hotairballoon,18_ringbox03,18,18,Big-visBig,1,1
05George47,1,9,8,1,1357,1,04_camera,04_tractor11,4,4,Big-visBig,1,1
05George47,2,10,8,2,1546,0,18_ringbox03,18_hotairballoon,18,18,Small-visBig,4,2
05George47,1,11,8,2,1272,1,07_grill,07_dice,7,7,Small-visBig,4,2
05George47,2,12,8,1,1948,1,15_couch2,15_scotchtape,15,15,Big-visBig,1,1
05George47,2,13,8,1,1344,1,16_garbagecan,16_clock,16,16,Big-visBig,1,1
05George47,1,14,8,2,1324,1,09_armchair,09_mushroom,9,9,Small-visBig,4,2
05George47,1,15,8,1,1070,1,17_pinecone,17_hotairballoon2,17,17,Big-visBig,1,1
05George47,2,16,8,2,1631,1,04_camera,04_tractor11,4,4,Small-visBig,4,2
05George47,1,17,8,1,1273,1,13_rubberduck,13_piano,13,13,Big-visBig,1,1
05George47,1,18,8,2,1126,0,13_piano,13_rubberduck,13,13,Small-visBig,4,2
05George47,2,19,8,1,1948,1,02_carousel,02_seashell,2,2,Big-visBig,1,1
05George47,2,20,8,2,1228,1,16_clock,16_garbagecan,16,16,Small-visBig,4,2
05George47,1,21,8,1,1913,1,19_garlic,19_refrigerator,19,19,Big-visBig,1,1
05George47,1,22,8,2,1700,1,14_washingMachine,14_perfume,14,14,Small-visBig,4,2
05George47,2,23,8,2,1217,1,15_scotchtape,15_couch2,15,15,Small-visBig,4,2
05George47,2,24,8,1,2233,1,03_sofachair,03_baseball 2,3,3,Big-visBig,1,1
05George47,2,25,8,2,1662,1,17_pinecone,17_hotairballoon2,17,17,Small-visBig,4,2
05George47,1,26,8,1,1978,1,16_clock,16_garbagecan,16,16,Big-visBig,1,1
05George47,2,27,8,1,2765,1,01_desk,01_apple,1,1,Big-visBig,1,1
05George47,1,28,8,2,1514,1,01_desk,01_apple,1,1,Small-visBig,4,2
05George47,1,29,8,2,2239,0,10_bison,10_bowtiepasta,10,10,Small-visBig,4,2
05George47,1,30,8,1,1142,1,01_apple,01_desk,1,1,Big-visBig,1,1
05George47,2,31,8,2,1462,1,20_ornament,20_wheelchair,20,20,Small-visBig,4,2
05George47,2,32,8,1,1070,1,05_wagon,05_button,5,5,Big-visBig,1,1
05George47,1,33,8,2,1811,1,18_hotairballoon,18_ringbox03,18,18,Small-visBig,4,2
05George47,2,34,8,2,1451,1,03_baseball 2,03_sofachair,3,3,Small-visBig,4,2
05George47,1,35,8,1,1175,1,12_pencil sharpener 5,12_bookcase,12,12,Big-visBig,1,1
05George47,2,36,8,1,1289,1,08_uprightpiano,08_changepurse,8,8,Big-visBig,1,1
05George47,2,37,8,1,1458,1,12_bookcase,12_pencil sharpener 5,12,12,Big-visBig,1,1
05George47,1,38,8,1,2321,1,03_baseball 2,03_sofachair,3,3,Big-visBig,1,1
05George47,2,39,8,2,1562,1,08_changepurse,08_uprightpiano,8,8,Small-visBig,4,2
05George47,1,40,8,2,2178,1,12_bookcase,12_pencil sharpener 5,12,12,Small-visBig,4,2
05George47,2,41,8,2,2393,1,02_seashell,02_carousel,2,2,Small-visBig,4,2
05George47,1,42,8,2,2281,1,02_carousel,02_seashell,2,2,Small-visBig,4,2
05George47,1,43,8,1,1629,1,08_changepurse,08_uprightpiano,8,8,Big-visBig,1,1
05George47,2,44,8,1,1749,1,13_piano,13_rubberduck,13,13,Big-visBig,1,1
05George47,2,45,8,2,1194,1,14_perfume,14_washingMachine,14,14,Small-visBig,4,2
05George47,2,46,8,1,1589,1,09_armchair,09_mushroom,9,9,Big-visBig,1,1
05George47,1,47,8,2,1666,0,11_fountain13,11_controller,11,11,Small-visBig,4,2
05George47,1,48,8,1,2927,1,15_scotchtape,15_couch2,15,15,Big-visBig,1,1
05George47,2,49,8,2,1981,1,12_pencil sharpener 5,12_bookcase,12,12,Small-visBig,4,2
05George47,1,50,8,2,1702,1,03_sofachair,03_baseball 2,3,3,Small-visBig,4,2
05George47,1,51,8,1,1714,0,14_perfume,14_washingMachine,14,14,Big-visBig,1,1
05George47,2,52,8,1,1625,1,11_fountain13,11_controller,11,11,Big-visBig,1,1
05George47,2,53,8,1,1495,1,19_refrigerator,19_garlic,19,19,Big-visBig,1,1
05George47,2,54,8,2,2151,1,07_dice,07_grill,7,7,Small-visBig,4,2
05George47,1,55,8,2,2763,0,06_parthenon,06_cable,6,6,Small-visBig,4,2
05George47,1,56,8,1,1736,1,20_ornament,20_wheelchair,20,20,Big-visBig,1,1
05George47,1,57,8,2,3120,1,15_couch2,15_scotchtape,15,15,Small-visBig,4,2
05George47,2,58,8,2,1774,1,11_controller,11_fountain13,11,11,Small-visBig,4,2
05George47,2,59,8,1,2207,1,14_washingMachine,14_perfume,14,14,Big-visBig,1,1
05George47,1,60,8,1,1826,0,05_button,05_wagon,5,5,Big-visBig,1,1
05George47,1,61,8,2,1712,0,17_hotairballoon2,17_pinecone,17,17,Small-visBig,4,2
05George47,2,62,8,2,1390,1,10_bowtiepasta,10_bison,10,10,Small-visBig,4,2
05George47,2,63,8,1,4561,1,06_parthenon,06_cable,6,6,Big-visBig,1,1
05George47,1,64,8,1,2388,1,07_dice,07_grill,7,7,Big-visBig,1,1
05George47,1,65,8,2,1874,1,19_refrigerator,19_garlic,19,19,Small-visBig,4,2
05George47,2,66,8,2,2017,1,06_cable,06_parthenon,6,6,Small-visBig,4,2
05George47,2,67,8,1,2555,1,07_grill,07_dice,7,7,Big-visBig,1,1
05George47,1,68,8,1,3037,0,09_mushroom,09_armchair,9,9,Big-visBig,1,1
05George47,2,69,8,1,2690,0,17_hotairballoon2,17_pinecone,17,17,Big-visBig,1,1
05George47,1,70,8,2,1688,1,16_garbagecan,16_clock,16,16,Small-visBig,4,2
05George47,2,71,8,2,1519,1,05_button,05_wagon,5,5,Small-visBig,4,2
05George47,1,72,8,1,3357,1,10_bowtiepasta,10_bison,10,10,Big-visBig,1,1
05George47,1,73,8,1,2147,1,02_seashell,02_carousel,2,2,Big-visBig,1,1
05George47,2,74,8,1,2319,1,20_wheelchair,20_ornament,20,20,Big-visBig,1,1
05George47,2,75,8,2,2441,1,13_rubberduck,13_piano,13,13,Small-visBig,4,2
05George47,1,76,8,2,2098,1,20_wheelchair,20_ornament,20,20,Small-visBig,4,2
05George47,2,77,8,1,1192,1,10_bison,10_bowtiepasta,10,10,Big-visBig,1,1
05George47,1,78,8,2,1423,1,05_wagon,05_button,5,5,Small-visBig,4,2
05George47,2,79,8,2,1631,0,09_mushroom,09_armchair,9,9,Small-visBig,4,2
05George47,1,80,8,1,2526,1,06_cable,06_parthenon,6,6,Big-visBig,1,1
05peter50stroop,1,1,9,1,19421,0,05_button,05_wagon,5,5,Big-visBig,1,1
05peter50stroop,2,2,9,1,1822,1,04_tractor11,04_camera,4,4,Big-visBig,1,1
05peter50stroop,1,3,9,2,1273,1,03_sofachair,03_baseball 2,3,3,Small-visBig,4,2
05peter50stroop,2,4,9,2,1682,1,11_controller,11_fountain13,11,11,Small-visBig,4,2
05peter50stroop,2,5,9,1,1787,1,12_bookcase,12_pencil sharpener 5,12,12,Big-visBig,1,1
05peter50stroop,1,6,9,2,1351,1,19_refrigerator,19_garlic,19,19,Small-visBig,4,2
05peter50stroop,1,7,9,1,982,1,12_pencil sharpener 5,12_bookcase,12,12,Big-visBig,1,1
05peter50stroop,2,8,9,2,1567,1,15_scotchtape,15_couch2,15,15,Small-visBig,4,2
05peter50stroop,2,9,9,2,1196,1,10_bowtiepasta,10_bison,10,10,Small-visBig,4,2
05peter50stroop,2,10,9,1,1873,1,06_parthenon,06_cable,6,6,Big-visBig,1,1
05peter50stroop,1,11,9,1,1358,1,04_camera,04_tractor11,4,4,Big-visBig,1,1
05peter50stroop,1,12,9,2,966,1,12_bookcase,12_pencil sharpener 5,12,12,Small-visBig,4,2
05peter50stroop,2,13,9,2,1885,1,02_seashell,02_carousel,2,2,Small-visBig,4,2
05peter50stroop,1,14,9,2,1096,1,06_parthenon,06_cable,6,6,Small-visBig,4,2
05peter50stroop,2,15,9,1,1616,1,16_garbagecan,16_clock,16,16,Big-visBig,1,1
05peter50stroop,1,16,9,1,1083,1,13_rubberduck,13_piano,13,13,Big-visBig,1,1
05peter50stroop,1,17,9,2,1297,1,08_uprightpiano,08_changepurse,8,8,Small-visBig,4,2
05peter50stroop,1,18,9,1,980,1,14_perfume,14_washingMachine,14,14,Big-visBig,1,1
05peter50stroop,2,19,9,1,1400,1,15_couch2,15_scotchtape,15,15,Big-visBig,1,1
05peter50stroop,2,20,9,2,1568,1,19_garlic,19_refrigerator,19,19,Small-visBig,4,2
05peter50stroop,1,21,9,1,910,1,17_pinecone,17_hotairballoon2,17,17,Big-visBig,1,1
05peter50stroop,2,22,9,1,1562,1,09_armchair,09_mushroom,9,9,Big-visBig,1,1
05peter50stroop,2,23,9,2,1210,1,06_cable,06_parthenon,6,6,Small-visBig,4,2
05peter50stroop,1,24,9,2,1311,1,07_grill,07_dice,7,7,Small-visBig,4,2
05peter50stroop,2,25,9,2,1514,1,09_mushroom,09_armchair,9,9,Small-visBig,4,2
05peter50stroop,1,26,9,2,1701,1,20_wheelchair,20_ornament,20,20,Small-visBig,4,2
05peter50stroop,1,27,9,1,1268,1,03_baseball 2,03_sofachair,3,3,Big-visBig,1,1
05peter50stroop,2,28,9,1,1311,1,11_fountain13,11_controller,11,11,Big-visBig,1,1
05peter50stroop,1,29,9,1,1946,1,11_controller,11_fountain13,11,11,Big-visBig,1,1
05peter50stroop,1,30,9,2,930,1,01_desk,01_apple,1,1,Small-visBig,4,2
05peter50stroop,2,31,9,1,1235,1,18_hotairballoon,18_ringbox03,18,18,Big-visBig,1,1
05peter50stroop,2,32,9,2,2648,1,07_dice,07_grill,7,7,Small-visBig,4,2
05peter50stroop,2,33,9,1,1315,1,13_piano,13_rubberduck,13,13,Big-visBig,1,1
05peter50stroop,1,34,9,1,1204,1,01_apple,01_desk,1,1,Big-visBig,1,1
05peter50stroop,1,35,9,2,1286,1,16_garbagecan,16_clock,16,16,Small-visBig,4,2
05peter50stroop,2,36,9,2,7771,1,04_camera,04_tractor11,4,4,Small-visBig,4,2
05peter50stroop,1,37,9,1,2061,1,06_cable,06_parthenon,6,6,Big-visBig,1,1
05peter50stroop,2,38,9,1,1142,1,05_wagon,05_button,5,5,Big-visBig,1,1
05peter50stroop,2,39,9,2,2107,1,13_rubberduck,13_piano,13,13,Small-visBig,4,2
05peter50stroop,1,40,9,2,1392,1,05_wagon,05_button,5,5,Small-visBig,4,2
05peter50stroop,1,41,9,2,1430,1,09_armchair,09_mushroom,9,9,Small-visBig,4,2
05peter50stroop,1,42,9,1,1002,1,18_ringbox03,18_hotairballoon,18,18,Big-visBig,1,1
05peter50stroop,2,43,9,2,1354,1,01_apple,01_desk,1,1,Small-visBig,4,2
05peter50stroop,2,44,9,1,1114,1,10_bison,10_bowtiepasta,10,10,Big-visBig,1,1
05peter50stroop,2,45,9,2,982,1,20_ornament,20_wheelchair,20,20,Small-visBig,4,2
05peter50stroop,1,46,9,2,2013,1,14_washingMachine,14_perfume,14,14,Small-visBig,4,2
05peter50stroop,2,47,9,1,1310,1,17_hotairballoon2,17_pinecone,17,17,Big-visBig,1,1
05peter50stroop,1,48,9,1,1304,1,19_garlic,19_refrigerator,19,19,Big-visBig,1,1
05peter50stroop,1,49,9,1,1344,1,08_changepurse,08_uprightpiano,8,8,Big-visBig,1,1
05peter50stroop,2,50,9,2,1116,0,12_pencil sharpener 5,12_bookcase,12,12,Small-visBig,4,2
05peter50stroop,2,51,9,1,967,1,14_washingMachine,14_perfume,14,14,Big-visBig,1,1
05peter50stroop,1,52,9,2,1598,1,10_bison,10_bowtiepasta,10,10,Small-visBig,4,2
05peter50stroop,2,53,9,2,2872,1,14_perfume,14_washingMachine,14,14,Small-visBig,4,2
05peter50stroop,1,54,9,2,1514,1,11_fountain13,11_controller,11,11,Small-visBig,4,2
05peter50stroop,1,55,9,1,2589,1,07_dice,07_grill,7,7,Big-visBig,1,1
05peter50stroop,2,56,9,1,1195,1,08_uprightpiano,08_changepurse,8,8,Big-visBig,1,1
05peter50stroop,1,57,9,1,1553,0,20_ornament,20_wheelchair,20,20,Big-visBig,1,1
05peter50stroop,2,58,9,1,1152,1,19_refrigerator,19_garlic,19,19,Big-visBig,1,1
05peter50stroop,2,59,9,2,1058,1,05_button,05_wagon,5,5,Small-visBig,4,2
05peter50stroop,1,60,9,2,1316,1,13_piano,13_rubberduck,13,13,Small-visBig,4,2
05peter50stroop,2,61,9,1,1922,1,02_carousel,02_seashell,2,2,Big-visBig,1,1
05peter50stroop,2,62,9,2,1330,1,08_changepurse,08_uprightpiano,8,8,Small-visBig,4,2
05peter50stroop,1,63,9,1,1783,1,09_mushroom,09_armchair,9,9,Big-visBig,1,1
05peter50stroop,1,64,9,2,1180,1,15_couch2,15_scotchtape,15,15,Small-visBig,4,2
05peter50stroop,1,65,9,1,1102,1,16_clock,16_garbagecan,16,16,Big-visBig,1,1
05peter50stroop,2,66,9,2,1676,1,16_clock,16_garbagecan,16,16,Small-visBig,4,2
05peter50stroop,1,67,9,2,1223,1,02_carousel,02_seashell,2,2,Small-visBig,4,2
05peter50stroop,2,68,9,1,1477,1,01_desk,01_apple,1,1,Big-visBig,1,1
05peter50stroop,2,69,9,1,1519,1,20_wheelchair,20_ornament,20,20,Big-visBig,1,1
05peter50stroop,1,70,9,1,3119,1,10_bowtiepasta,10_bison,10,10,Big-visBig,1,1
05peter50stroop,1,71,9,2,1406,1,04_tractor11,04_camera,4,4,Small-visBig,4,2
05peter50stroop,2,72,9,2,1368,1,17_pinecone,17_hotairballoon2,17,17,Small-visBig,4,2
06eleanor48stroop,1,1,10,2,1747,1,03_sofachair,03_baseball 2,3,3,Small-visBig,4,2
06eleanor48stroop,1,2,10,1,1741,1,11_controller,11_fountain13,11,11,Big-visBig,1,1
06eleanor48stroop,2,3,10,2,1591,1,11_controller,11_fountain13,11,11,Small-visBig,4,2
06eleanor48stroop,2,4,10,1,1359,1,05_wagon,05_button,5,5,Big-visBig,1,1
06eleanor48stroop,1,5,10,2,1451,1,16_garbagecan,16_clock,16,16,Small-visBig,4,2
06eleanor48stroop,1,6,10,1,1506,1,02_seashell,02_carousel,2,2,Big-visBig,1,1
06eleanor48stroop,2,7,10,1,2398,1,15_couch2,15_scotchtape,15,15,Big-visBig,1,1
06eleanor48stroop,2,8,10,2,1671,1,02_seashell,02_carousel,2,2,Small-visBig,4,2
06eleanor48stroop,2,9,10,2,1944,1,05_button,05_wagon,5,5,Small-visBig,4,2
06eleanor48stroop,1,10,10,2,1247,1,09_armchair,09_mushroom,9,9,Small-visBig,4,2
06eleanor48stroop,2,11,10,1,1514,1,11_fountain13,11_controller,11,11,Big-visBig,1,1
06eleanor48stroop,1,12,10,1,1626,1,05_button,05_wagon,5,5,Big-visBig,1,1
06eleanor48stroop,2,13,10,1,1394,1,13_piano,13_rubberduck,13,13,Big-visBig,1,1
06eleanor48stroop,1,14,10,2,1408,1,04_tractor11,04_camera,4,4,Small-visBig,4,2
06eleanor48stroop,1,15,10,1,2103,1,10_bowtiepasta,10_bison,10,10,Big-visBig,1,1
06eleanor48stroop,2,16,10,2,1518,1,19_garlic,19_refrigerator,19,19,Small-visBig,4,2
06eleanor48stroop,2,17,10,1,1782,1,09_armchair,09_mushroom,9,9,Big-visBig,1,1
06eleanor48stroop,1,18,10,1,1801,1,16_clock,16_garbagecan,16,16,Big-visBig,1,1
06eleanor48stroop,2,19,10,2,1308,1,04_camera,04_tractor11,4,4,Small-visBig,4,2
06eleanor48stroop,1,20,10,2,1351,1,13_piano,13_rubberduck,13,13,Small-visBig,4,2
06eleanor48stroop,2,21,10,1,1513,1,08_uprightpiano,08_changepurse,8,8,Big-visBig,1,1
06eleanor48stroop,2,22,10,2,1312,1,17_pinecone,17_hotairballoon2,17,17,Small-visBig,4,2
06eleanor48stroop,1,23,10,2,1322,1,01_desk,01_apple,1,1,Small-visBig,4,2
06eleanor48stroop,1,24,10,1,1398,1,15_scotchtape,15_couch2,15,15,Big-visBig,1,1
06eleanor48stroop,1,25,10,1,1020,1,01_apple,01_desk,1,1,Big-visBig,1,1
06eleanor48stroop,2,26,10,1,1145,1,07_grill,07_dice,7,7,Big-visBig,1,1
06eleanor48stroop,1,27,10,2,1354,1,19_refrigerator,19_garlic,19,19,Small-visBig,4,2
06eleanor48stroop,2,28,10,2,1461,1,06_cable,06_parthenon,6,6,Small-visBig,4,2
06eleanor48stroop,1,29,10,1,1469,1,18_ringbox03,18_hotairballoon,18,18,Big-visBig,1,1
06eleanor48stroop,1,30,10,2,1764,1,12_bookcase,12_pencil sharpener 5,12,12,Small-visBig,4,2
06eleanor48stroop,2,31,10,1,1552,1,17_hotairballoon2,17_pinecone,17,17,Big-visBig,1,1
06eleanor48stroop,2,32,10,2,1922,1,07_dice,07_grill,7,7,Small-visBig,4,2
06eleanor48stroop,2,33,10,1,1485,1,18_hotairballoon,18_ringbox03,18,18,Big-visBig,1,1
06eleanor48stroop,1,34,10,2,1725,1,20_wheelchair,20_ornament,20,20,Small-visBig,4,2
06eleanor48stroop,2,35,10,2,1115,1,14_perfume,14_washingMachine,14,14,Small-visBig,4,2
06eleanor48stroop,1,36,10,1,2617,1,12_pencil sharpener 5,12_bookcase,12,12,Big-visBig,1,1
06eleanor48stroop,1,37,10,2,2031,1,17_hotairballoon2,17_pinecone,17,17,Small-visBig,4,2
06eleanor48stroop,1,38,10,1,1334,1,19_garlic,19_refrigerator,19,19,Big-visBig,1,1
06eleanor48stroop,2,39,10,1,1420,1,20_wheelchair,20_ornament,20,20,Big-visBig,1,1
06eleanor48stroop,2,40,10,2,1267,1,01_apple,01_desk,1,1,Small-visBig,4,2
06eleanor48stroop,1,41,10,1,1532,1,13_rubberduck,13_piano,13,13,Big-visBig,1,1
06eleanor48stroop,2,42,10,1,1086,1,19_refrigerator,19_garlic,19,19,Big-visBig,1,1
06eleanor48stroop,2,43,10,2,1385,1,18_ringbox03,18_hotairballoon,18,18,Small-visBig,4,2
06eleanor48stroop,1,44,10,2,1726,1,07_grill,07_dice,7,7,Small-visBig,4,2
06eleanor48stroop,2,45,10,2,1729,1,10_bowtiepasta,10_bison,10,10,Small-visBig,4,2
06eleanor48stroop,2,46,10,1,1401,1,14_washingMachine,14_perfume,14,14,Big-visBig,1,1
06eleanor48stroop,1,47,10,2,1261,1,06_parthenon,06_cable,6,6,Small-visBig,4,2
06eleanor48stroop,1,48,10,1,2536,1,17_pinecone,17_hotairballoon2,17,17,Big-visBig,1,1
06eleanor48stroop,1,49,10,1,1683,1,07_dice,07_grill,7,7,Big-visBig,1,1
06eleanor48stroop,2,50,10,1,1220,1,02_carousel,02_seashell,2,2,Big-visBig,1,1
06eleanor48stroop,1,51,10,2,1463,1,08_uprightpiano,08_changepurse,8,8,Small-visBig,4,2
06eleanor48stroop,2,52,10,2,2624,1,03_baseball 2,03_sofachair,3,3,Small-visBig,4,2
06eleanor48stroop,2,53,10,2,1601,1,16_clock,16_garbagecan,16,16,Small-visBig,4,2
06eleanor48stroop,1,54,10,1,1130,1,08_changepurse,08_uprightpiano,8,8,Big-visBig,1,1
06eleanor48stroop,1,55,10,2,1981,1,18_hotairballoon,18_ringbox03,18,18,Small-visBig,4,2
06eleanor48stroop,2,56,10,1,1182,1,12_bookcase,12_pencil sharpener 5,12,12,Big-visBig,1,1
06eleanor48stroop,1,57,10,1,1395,1,06_cable,06_parthenon,6,6,Big-visBig,1,1
06eleanor48stroop,2,58,10,1,1495,1,03_sofachair,03_baseball 2,3,3,Big-visBig,1,1
06eleanor48stroop,1,59,10,2,1416,1,14_washingMachine,14_perfume,14,14,Small-visBig,4,2
06eleanor48stroop,2,60,10,2,1534,1,13_rubberduck,13_piano,13,13,Small-visBig,4,2
06eleanor48stroop,1,61,10,1,1173,1,03_baseball 2,03_sofachair,3,3,Big-visBig,1,1
06eleanor48stroop,2,62,10,1,1683,1,04_tractor11,04_camera,4,4,Big-visBig,1,1
06eleanor48stroop,2,63,10,2,1462,1,20_ornament,20_wheelchair,20,20,Small-visBig,4,2
06eleanor48stroop,1,64,10,2,2180,1,15_couch2,15_scotchtape,15,15,Small-visBig,4,2
06eleanor48stroop,1,65,10,2,1742,1,05_wagon,05_button,5,5,Small-visBig,4,2
06eleanor48stroop,1,66,10,1,1957,1,14_perfume,14_washingMachine,14,14,Big-visBig,1,1
06eleanor48stroop,2,67,10,1,1501,1,16_garbagecan,16_clock,16,16,Big-visBig,1,1
06eleanor48stroop,2,68,10,2,1193,1,08_changepurse,08_uprightpiano,8,8,Small-visBig,4,2
06eleanor48stroop,1,69,10,1,1157,1,04_camera,04_tractor11,4,4,Big-visBig,1,1
06ninastroop440,2,1,11,1,7061,1,11_fountain13,11_controller,11,11,Big-visBig,1,1
06ninastroop440,1,2,11,2,3915,1,13_piano,13_rubberduck,13,13,Small-visBig,4,2
06ninastroop440,1,3,11,1,5004,1,20_ornament,20_wheelchair,20,20,Big-visBig,1,1
06ninastroop440,2,4,11,2,3382,1,07_dice,07_grill,7,7,Small-visBig,4,2
06ninastroop440,2,5,11,1,3759,1,12_bookcase,12_pencil sharpener 5,12,12,Big-visBig,1,1
06ninastroop440,1,6,11,1,4731,1,12_pencil sharpener 5,12_bookcase,12,12,Big-visBig,1,1
06ninastroop440,2,7,11,2,2922,1,09_mushroom,09_armchair,9,9,Small-visBig,4,2
06ninastroop440,1,8,11,2,4472,1,14_washingMachine,14_perfume,14,14,Small-visBig,4,2
06ninastroop440,2,9,11,1,3808,1,08_uprightpiano,08_changepurse,8,8,Big-visBig,1,1
06ninastroop440,1,10,11,1,3715,1,16_clock,16_garbagecan,16,16,Big-visBig,1,1
06ninastroop440,2,11,11,2,4477,1,20_ornament,20_wheelchair,20,20,Small-visBig,4,2
06ninastroop440,1,12,11,2,3951,1,12_bookcase,12_pencil sharpener 5,12,12,Small-visBig,4,2
06ninastroop440,2,13,11,1,4219,1,02_carousel,02_seashell,2,2,Big-visBig,1,1
06ninastroop440,1,14,11,1,3679,1,04_camera,04_tractor11,4,4,Big-visBig,1,1
06ninastroop440,1,15,11,2,3773,1,01_desk,01_apple,1,1,Small-visBig,4,2
06ninastroop440,2,16,11,2,4451,1,18_ringbox03,18_hotairballoon,18,18,Small-visBig,4,2
06ninastroop440,2,17,11,1,4216,1,17_hotairballoon2,17_pinecone,17,17,Big-visBig,1,1
06ninastroop440,2,18,11,2,3743,1,19_garlic,19_refrigerator,19,19,Small-visBig,4,2
06ninastroop440,1,19,11,2,4519,1,05_wagon,05_button,5,5,Small-visBig,4,2
06ninastroop440,1,20,11,1,4652,1,18_ringbox03,18_hotairballoon,18,18,Big-visBig,1,1
06ninastroop440,2,21,11,2,1813,1,17_pinecone,17_hotairballoon2,17,17,Small-visBig,4,2
06ninastroop440,2,22,11,1,2676,1,13_piano,13_rubberduck,13,13,Big-visBig,1,1
06ninastroop440,1,23,11,2,3518,1,06_parthenon,06_cable,6,6,Small-visBig,4,2
06ninastroop440,1,24,11,1,3383,1,06_cable,06_parthenon,6,6,Big-visBig,1,1
06ninastroop440,2,25,11,1,3445,1,05_wagon,05_button,5,5,Big-visBig,1,1
06ninastroop440,1,26,11,2,4927,1,07_grill,07_dice,7,7,Small-visBig,4,2
06ninastroop440,1,27,11,1,4217,1,15_scotchtape,15_couch2,15,15,Big-visBig,1,1
06ninastroop440,2,28,11,2,2270,1,04_camera,04_tractor11,4,4,Small-visBig,4,2
06ninastroop440,2,29,11,2,2429,1,16_clock,16_garbagecan,16,16,Small-visBig,4,2
06ninastroop440,1,30,11,1,2998,1,07_dice,07_grill,7,7,Big-visBig,1,1
06ninastroop440,1,31,11,2,2908,1,11_fountain13,11_controller,11,11,Small-visBig,4,2
06ninastroop440,2,32,11,1,7053,1,07_grill,07_dice,7,7,Big-visBig,1,1
06ninastroop440,1,33,11,2,4004,1,17_hotairballoon2,17_pinecone,17,17,Small-visBig,4,2
06ninastroop440,2,34,11,1,3795,1,20_wheelchair,20_ornament,20,20,Big-visBig,1,1
06ninastroop440,2,35,11,2,2465,1,15_scotchtape,15_couch2,15,15,Small-visBig,4,2
06ninastroop440,1,36,11,1,3252,1,02_seashell,02_carousel,2,2,Big-visBig,1,1
06ninastroop440,2,37,11,2,3045,1,13_rubberduck,13_piano,13,13,Small-visBig,4,2
06ninastroop440,1,38,11,1,2112,0,11_controller,11_fountain13,11,11,Big-visBig,1,1
06ninastroop440,1,39,11,2,2774,1,02_carousel,02_seashell,2,2,Small-visBig,4,2
06ninastroop440,2,40,11,1,3432,1,01_desk,01_apple,1,1,Big-visBig,1,1
06ninastroop440,2,41,11,1,3437,1,06_parthenon,06_cable,6,6,Big-visBig,1,1
06ninastroop440,1,42,11,2,2319,1,03_sofachair,03_baseball 2,3,3,Small-visBig,4,2
06ninastroop440,1,43,11,1,2292,1,13_rubberduck,13_piano,13,13,Big-visBig,1,1
06ninastroop440,2,44,11,2,4395,1,06_cable,06_parthenon,6,6,Small-visBig,4,2
06ninastroop440,2,45,11,2,3497,1,08_changepurse,08_uprightpiano,8,8,Small-visBig,4,2
06ninastroop440,2,46,11,1,2918,1,10_bison,10_bowtiepasta,10,10,Big-visBig,1,1
06ninastroop440,1,47,11,1,3689,1,17_pinecone,17_hotairballoon2,17,17,Big-visBig,1,1
06ninastroop440,1,48,11,2,4972,1,19_refrigerator,19_garlic,19,19,Small-visBig,4,2
06ninastroop440,1,49,11,2,1381,1,20_wheelchair,20_ornament,20,20,Small-visBig,4,2
06ninastroop440,2,50,11,1,2640,1,04_tractor11,04_camera,4,4,Big-visBig,1,1
06ninastroop440,2,51,11,2,1674,1,12_pencil sharpener 5,12_bookcase,12,12,Small-visBig,4,2
06ninastroop440,1,52,11,1,2448,1,14_perfume,14_washingMachine,14,14,Big-visBig,1,1
06ninastroop440,2,53,11,1,1459,1,18_hotairballoon,18_ringbox03,18,18,Big-visBig,1,1
06ninastroop440,2,54,11,2,3221,1,01_apple,01_desk,1,1,Small-visBig,4,2
06ninastroop440,1,55,11,2,2030,1,18_hotairballoon,18_ringbox03,18,18,Small-visBig,4,2
06ninastroop440,1,56,11,1,2346,1,19_garlic,19_refrigerator,19,19,Big-visBig,1,1
06ninastroop440,2,57,11,1,3402,1,19_refrigerator,19_garlic,19,19,Big-visBig,1,1
06ninastroop440,2,58,11,2,2049,1,14_perfume,14_washingMachine,14,14,Small-visBig,4,2
06ninastroop440,1,59,11,2,2308,1,15_couch2,15_scotchtape,15,15,Small-visBig,4,2
06ninastroop440,1,60,11,1,2348,1,10_bowtiepasta,10_bison,10,10,Big-visBig,1,1
06ninastroop440,1,61,11,1,1988,1,01_apple,01_desk,1,1,Big-visBig,1,1
06ninastroop440,2,62,11,1,3556,1,14_washingMachine,14_perfume,14,14,Big-visBig,1,1
06ninastroop440,2,63,11,2,3165,1,03_baseball 2,03_sofachair,3,3,Small-visBig,4,2
06ninastroop440,1,64,11,2,2443,1,08_uprightpiano,08_changepurse,8,8,Small-visBig,4,2
06ninastroop440,1,65,11,1,2692,1,09_mushroom,09_armchair,9,9,Big-visBig,1,1
06ninastroop440,2,66,11,1,3677,1,09_armchair,09_mushroom,9,9,Big-visBig,1,1
06ninastroop440,1,67,11,2,2457,1,04_tractor11,04_camera,4,4,Small-visBig,4,2
06ninastroop440,2,68,11,2,3537,1,10_bowtiepasta,10_bison,10,10,Small-visBig,4,2
06ninastroop440,1,69,11,1,1671,1,03_baseball 2,03_sofachair,3,3,Big-visBig,1,1
06ninastroop440,1,70,11,2,1978,1,09_armchair,09_mushroom,9,9,Small-visBig,4,2
06ninastroop440,2,71,11,2,1522,1,02_seashell,02_carousel,2,2,Small-visBig,4,2
06ninastroop440,2,72,11,1,2833,1,16_garbagecan,16_clock,16,16,Big-visBig,1,1
06ninastroop440,1,73,11,2,2689,1,16_garbagecan,16_clock,16,16,Small-visBig,4,2
06ninastroop440,1,74,11,1,1646,1,08_changepurse,08_uprightpiano,8,8,Big-visBig,1,1
06ninastroop440,2,75,11,1,2260,1,03_sofachair,03_baseball 2,3,3,Big-visBig,1,1
06ninastroop440,2,76,11,2,1717,1,05_button,05_wagon,5,5,Small-visBig,4,2
06ninastroop440,2,77,11,1,2489,1,15_couch2,15_scotchtape,15,15,Big-visBig,1,1
06ninastroop440,1,78,11,1,3841,1,05_button,05_wagon,5,5,Big-visBig,1,1
06ninastroop440,1,79,11,2,2672,1,10_bison,10_bowtiepasta,10,10,Small-visBig,4,2
06ninastroop440,2,80,11,2,1849,1,11_controller,11_fountain13,11,11,Small-visBig,4,2
07MMKlara03STROOP,2,1,12,1,4964,1,11_fountain13,11_controller,11,11,Big-visBig,1,1
07MMKlara03STROOP,1,2,12,1,8771,1,07_dice,07_grill,7,7,Big-visBig,1,1
07MMKlara03STROOP,1,3,12,2,2507,1,05_wagon,05_button,5,5,Small-visBig,4,2
07MMKlara03STROOP,2,4,12,2,2216,1,11_controller,11_fountain13,11,11,Small-visBig,4,2
07MMKlara03STROOP,2,5,12,2,2788,1,01_apple,01_desk,1,1,Small-visBig,4,2
07MMKlara03STROOP,1,6,12,2,2208,1,06_parthenon,06_cable,6,6,Small-visBig,4,2
07MMKlara03STROOP,1,7,12,1,2002,1,18_ringbox03,18_hotairballoon,18,18,Big-visBig,1,1
07MMKlara03STROOP,2,8,12,1,3744,1,05_wagon,05_button,5,5,Big-visBig,1,1
07MMKlara03STROOP,2,9,12,2,3292,1,03_baseball 2,03_sofachair,3,3,Small-visBig,4,2
07MMKlara03STROOP,1,10,12,1,6743,1,02_seashell,02_carousel,2,2,Big-visBig,1,1
07MMKlara03STROOP,1,11,12,2,1976,1,17_hotairballoon2,17_pinecone,17,17,Small-visBig,4,2
07MMKlara03STROOP,2,12,12,1,1531,1,10_bison,10_bowtiepasta,10,10,Big-visBig,1,1
07MMKlara03STROOP,2,13,12,2,4235,1,20_ornament,20_wheelchair,20,20,Small-visBig,4,2
07MMKlara03STROOP,1,14,12,1,1831,1,16_clock,16_garbagecan,16,16,Big-visBig,1,1
07MMKlara03STROOP,1,15,12,2,1860,1,07_grill,07_dice,7,7,Small-visBig,4,2
07MMKlara03STROOP,2,16,12,1,4351,1,07_grill,07_dice,7,7,Big-visBig,1,1
07MMKlara03STROOP,2,17,12,1,1596,1,08_uprightpiano,08_changepurse,8,8,Big-visBig,1,1
07MMKlara03STROOP,1,18,12,1,2337,1,04_camera,04_tractor11,4,4,Big-visBig,1,1
07MMKlara03STROOP,2,19,12,2,2328,1,17_pinecone,17_hotairballoon2,17,17,Small-visBig,4,2
07MMKlara03STROOP,1,20,12,2,1927,1,16_garbagecan,16_clock,16,16,Small-visBig,4,2
07MMKlara03STROOP,2,21,12,2,1902,1,19_garlic,19_refrigerator,19,19,Small-visBig,4,2
07MMKlara03STROOP,1,22,12,2,3702,1,18_hotairballoon,18_ringbox03,18,18,Small-visBig,4,2
07MMKlara03STROOP,2,23,12,1,2291,1,12_bookcase,12_pencil sharpener 5,12,12,Big-visBig,1,1
07MMKlara03STROOP,1,24,12,1,2658,1,11_controller,11_fountain13,11,11,Big-visBig,1,1
07MMKlara03STROOP,2,25,12,2,1824,1,16_clock,16_garbagecan,16,16,Small-visBig,4,2
07MMKlara03STROOP,1,26,12,2,3722,1,01_desk,01_apple,1,1,Small-visBig,4,2
07MMKlara03STROOP,2,27,12,1,3233,1,13_piano,13_rubberduck,13,13,Big-visBig,1,1
07MMKlara03STROOP,1,28,12,1,4215,1,09_mushroom,09_armchair,9,9,Big-visBig,1,1
07MMKlara03STROOP,1,29,12,1,3161,1,06_cable,06_parthenon,6,6,Big-visBig,1,1
07MMKlara03STROOP,1,30,12,2,3046,1,14_washingMachine,14_perfume,14,14,Small-visBig,4,2
07MMKlara03STROOP,2,31,12,2,5491,1,14_perfume,14_washingMachine,14,14,Small-visBig,4,2
07MMKlara03STROOP,2,32,12,1,1404,1,04_tractor11,04_camera,4,4,Big-visBig,1,1
07MMKlara03STROOP,2,33,12,2,1750,1,13_rubberduck,13_piano,13,13,Small-visBig,4,2
07MMKlara03STROOP,1,34,12,1,2433,1,14_perfume,14_washingMachine,14,14,Big-visBig,1,1
07MMKlara03STROOP,2,35,12,1,2867,1,15_couch2,15_scotchtape,15,15,Big-visBig,1,1
07MMKlara03STROOP,1,36,12,2,1814,1,11_fountain13,11_controller,11,11,Small-visBig,4,2
07MMKlara03STROOP,2,37,12,2,2650,1,18_ringbox03,18_hotairballoon,18,18,Small-visBig,4,2
07MMKlara03STROOP,2,38,12,1,1765,1,17_hotairballoon2,17_pinecone,17,17,Big-visBig,1,1
07MMKlara03STROOP,1,39,12,2,1954,1,03_sofachair,03_baseball 2,3,3,Small-visBig,4,2
07MMKlara03STROOP,1,40,12,1,2968,1,10_bowtiepasta,10_bison,10,10,Big-visBig,1,1
07MMKlara03STROOP,1,41,12,1,2433,1,03_baseball 2,03_sofachair,3,3,Big-visBig,1,1
07MMKlara03STROOP,2,42,12,2,2317,1,05_button,05_wagon,5,5,Small-visBig,4,2
07MMKlara03STROOP,2,43,12,1,2415,1,03_sofachair,03_baseball 2,3,3,Big-visBig,1,1
07MMKlara03STROOP,1,44,12,2,1983,1,04_tractor11,04_camera,4,4,Small-visBig,4,2
07MMKlara03STROOP,2,45,12,2,1955,1,15_scotchtape,15_couch2,15,15,Small-visBig,4,2
07MMKlara03STROOP,1,46,12,1,2954,1,01_apple,01_desk,1,1,Big-visBig,1,1
07MMKlara03STROOP,1,47,12,2,2285,1,10_bison,10_bowtiepasta,10,10,Small-visBig,4,2
07MMKlara03STROOP,2,48,12,1,2333,1,06_parthenon,06_cable,6,6,Big-visBig,1,1
07MMKlara03STROOP,2,49,12,1,2022,1,01_desk,01_apple,1,1,Big-visBig,1,1
07MMKlara03STROOP,1,50,12,1,2619,1,05_button,05_wagon,5,5,Big-visBig,1,1
07MMKlara03STROOP,1,51,12,2,5860,1,12_bookcase,12_pencil sharpener 5,12,12,Small-visBig,4,2
07MMKlara03STROOP,2,52,12,2,4858,1,07_dice,07_grill,7,7,Small-visBig,4,2
07MMKlara03STROOP,2,53,12,2,2374,1,04_camera,04_tractor11,4,4,Small-visBig,4,2
07MMKlara03STROOP,1,54,12,2,6388,1,02_carousel,02_seashell,2,2,Small-visBig,4,2
07MMKlara03STROOP,1,55,12,1,2421,1,13_rubberduck,13_piano,13,13,Big-visBig,1,1
07MMKlara03STROOP,2,56,12,1,1774,1,09_armchair,09_mushroom,9,9,Big-visBig,1,1
07MMKlara03STROOP,1,57,12,2,1831,1,15_couch2,15_scotchtape,15,15,Small-visBig,4,2
07MMKlara03STROOP,2,58,12,1,3419,1,16_garbagecan,16_clock,16,16,Big-visBig,1,1
07MMKlara03STROOP,1,59,12,1,3915,1,12_pencil sharpener 5,12_bookcase,12,12,Big-visBig,1,1
07MMKlara03STROOP,2,60,12,2,1833,1,09_mushroom,09_armchair,9,9,Small-visBig,4,2
07MMKlara03STROOP,2,61,12,2,6970,1,10_bowtiepasta,10_bison,10,10,Small-visBig,4,2
07MMKlara03STROOP,1,62,12,1,2163,1,15_scotchtape,15_couch2,15,15,Big-visBig,1,1
07MMKlara03STROOP,2,63,12,1,1578,1,18_hotairballoon,18_ringbox03,18,18,Big-visBig,1,1
07MMKlara03STROOP,1,64,12,2,2083,1,20_wheelchair,20_ornament,20,20,Small-visBig,4,2
07MMKlara03STROOP,2,65,12,1,7249,1,20_wheelchair,20_ornament,20,20,Big-visBig,1,1
07MMKlara03STROOP,1,66,12,1,2616,1,20_ornament,20_wheelchair,20,20,Big-visBig,1,1
07MMKlara03STROOP,1,67,12,2,2675,1,08_uprightpiano,08_changepurse,8,8,Small-visBig,4,2
07MMKlara03STROOP,2,68,12,2,1642,1,06_cable,06_parthenon,6,6,Small-visBig,4,2
07MMKlara03STROOP,2,69,12,1,1082,1,14_washingMachine,14_perfume,14,14,Big-visBig,1,1
07MMKlara03STROOP,2,70,12,2,1413,1,08_changepurse,08_uprightpiano,8,8,Small-visBig,4,2
07MMKlara03STROOP,1,71,12,2,1825,1,13_piano,13_rubberduck,13,13,Small-visBig,4,2
07MMKlara03STROOP,1,72,12,1,1937,1,08_changepurse,08_uprightpiano,8,8,Big-visBig,1,1
07MMKlara03STROOP,2,73,12,2,1498,1,02_seashell,02_carousel,2,2,Small-visBig,4,2
07MMKlara03STROOP,2,74,12,1,1468,1,02_carousel,02_seashell,2,2,Big-visBig,1,1
07MMKlara03STROOP,1,75,12,2,1281,1,09_armchair,09_mushroom,9,9,Small-visBig,4,2
07MMKlara03STROOP,1,76,12,1,2199,1,17_pinecone,17_hotairballoon2,17,17,Big-visBig,1,1
07MMKlara03STROOP,2,77,12,2,1433,1,12_pencil sharpener 5,12_bookcase,12,12,Small-visBig,4,2
07MMKlara03STROOP,1,78,12,2,1747,1,19_refrigerator,19_garlic,19,19,Small-visBig,4,2
07MMKlara03STROOP,2,79,12,1,2106,1,19_refrigerator,19_garlic,19,19,Big-visBig,1,1
07MMKlara03STROOP,1,80,12,1,1535,1,19_garlic,19_refrigerator,19,19,Big-visBig,1,1
08harriet37,2,1,13,1,4839,1,19_refrigerator,19_garlic,19,19,Big-visBig,1,1
08harriet37,1,2,13,2,2880,1,19_refrigerator,19_garlic,19,19,Small-visBig,4,2
08harriet37,1,3,13,1,3260,1,07_dice,07_grill,7,7,Big-visBig,1,1
08harriet37,2,4,13,2,4257,1,18_ringbox03,18_hotairballoon,18,18,Small-visBig,4,2
08harriet37,1,5,13,1,6314,0,12_pencil sharpener 5,12_bookcase,12,12,Big-visBig,1,1
08harriet37,1,6,13,2,2109,1,05_wagon,05_button,5,5,Small-visBig,4,2
08harriet37,2,7,13,2,1385,1,01_apple,01_desk,1,1,Small-visBig,4,2
08harriet37,2,8,13,1,1876,1,17_hotairballoon2,17_pinecone,17,17,Big-visBig,1,1
08harriet37,2,9,13,2,2498,1,04_camera,04_tractor11,4,4,Small-visBig,4,2
08harriet37,1,10,13,1,2391,1,04_camera,04_tractor11,4,4,Big-visBig,1,1
08harriet37,2,11,13,1,2946,1,01_desk,01_apple,1,1,Big-visBig,1,1
08harriet37,1,12,13,2,2158,1,01_desk,01_apple,1,1,Small-visBig,4,2
08harriet37,1,13,13,2,1927,1,02_carousel,02_seashell,2,2,Small-visBig,4,2
08harriet37,2,14,13,1,2125,1,03_sofachair,03_baseball 2,3,3,Big-visBig,1,1
08harriet37,2,15,13,2,2899,1,14_perfume,14_washingMachine,14,14,Small-visBig,4,2
08harriet37,1,16,13,1,1912,1,14_perfume,14_washingMachine,14,14,Big-visBig,1,1
08harriet37,2,17,13,2,2002,1,07_dice,07_grill,7,7,Small-visBig,4,2
08harriet37,1,18,13,2,2351,1,20_wheelchair,20_ornament,20,20,Small-visBig,4,2
08harriet37,1,19,13,1,2685,1,02_seashell,02_carousel,2,2,Big-visBig,1,1
08harriet37,2,20,13,1,1707,1,12_bookcase,12_pencil sharpener 5,12,12,Big-visBig,1,1
08harriet37,1,21,13,2,1466,1,16_garbagecan,16_clock,16,16,Small-visBig,4,2
08harriet37,2,22,13,1,1276,1,05_wagon,05_button,5,5,Big-visBig,1,1
08harriet37,2,23,13,2,3925,1,02_seashell,02_carousel,2,2,Small-visBig,4,2
08harriet37,1,24,13,1,1768,1,18_ringbox03,18_hotairballoon,18,18,Big-visBig,1,1
08harriet37,2,25,13,2,1530,0,10_bowtiepasta,10_bison,10,10,Small-visBig,4,2
08harriet37,1,26,13,1,1940,1,17_pinecone,17_hotairballoon2,17,17,Big-visBig,1,1
08harriet37,1,27,13,2,1644,1,06_parthenon,06_cable,6,6,Small-visBig,4,2
08harriet37,2,28,13,1,1413,1,10_bison,10_bowtiepasta,10,10,Big-visBig,1,1
08harriet37,2,29,13,2,2047,1,11_controller,11_fountain13,11,11,Small-visBig,4,2
08harriet37,1,30,13,2,1474,1,03_sofachair,03_baseball 2,3,3,Small-visBig,4,2
08harriet37,2,31,13,1,1267,1,14_washingMachine,14_perfume,14,14,Big-visBig,1,1
08harriet37,1,32,13,1,1048,1,09_mushroom,09_armchair,9,9,Big-visBig,1,1
08harriet37,2,33,13,1,1677,1,07_grill,07_dice,7,7,Big-visBig,1,1
08harriet37,2,34,13,2,2183,1,17_pinecone,17_hotairballoon2,17,17,Small-visBig,4,2
08harriet37,1,35,13,1,1202,1,16_clock,16_garbagecan,16,16,Big-visBig,1,1
08harriet37,1,36,13,2,1837,1,12_bookcase,12_pencil sharpener 5,12,12,Small-visBig,4,2
08harriet37,1,37,13,2,2385,1,08_uprightpiano,08_changepurse,8,8,Small-visBig,4,2
08harriet37,2,38,13,1,2201,1,06_parthenon,06_cable,6,6,Big-visBig,1,1
08harriet37,1,39,13,1,1275,1,03_baseball 2,03_sofachair,3,3,Big-visBig,1,1
08harriet37,2,40,13,2,1218,1,16_clock,16_garbagecan,16,16,Small-visBig,4,2
08harriet37,1,41,13,1,1454,1,01_apple,01_desk,1,1,Big-visBig,1,1
08harriet37,2,42,13,1,1619,1,18_hotairballoon,18_ringbox03,18,18,Big-visBig,1,1
08harriet37,1,43,13,2,2344,1,15_couch2,15_scotchtape,15,15,Small-visBig,4,2
08harriet37,2,44,13,2,1434,1,15_scotchtape,15_couch2,15,15,Small-visBig,4,2
08harriet37,2,45,13,2,1640,1,05_button,05_wagon,5,5,Small-visBig,4,2
08harriet37,1,46,13,2,1351,1,17_hotairballoon2,17_pinecone,17,17,Small-visBig,4,2
08harriet37,2,47,13,1,932,1,13_piano,13_rubberduck,13,13,Big-visBig,1,1
08harriet37,1,48,13,1,1163,1,08_changepurse,08_uprightpiano,8,8,Big-visBig,1,1
08harriet37,1,49,13,2,1176,0,07_grill,07_dice,7,7,Small-visBig,4,2
08harriet37,1,50,13,1,4691,1,19_garlic,19_refrigerator,19,19,Big-visBig,1,1
08harriet37,2,51,13,2,2132,1,19_garlic,19_refrigerator,19,19,Small-visBig,4,2
08harriet37,2,52,13,1,1907,1,15_couch2,15_scotchtape,15,15,Big-visBig,1,1
08harriet37,2,53,13,1,935,1,09_armchair,09_mushroom,9,9,Big-visBig,1,1
08harriet37,1,54,13,1,2145,1,06_cable,06_parthenon,6,6,Big-visBig,1,1
09suryavir37stroop,2,1,14,1,1194,0,20_wheelchair,20_ornament,20,20,Big-visBig,1,1
09suryavir37stroop,1,2,14,2,1020,1,05_wagon,05_button,5,5,Small-visBig,4,2
09suryavir37stroop,1,3,14,1,1689,0,08_changepurse,08_uprightpiano,8,8,Big-visBig,1,1
09suryavir37stroop,2,4,14,2,1244,1,14_perfume,14_washingMachine,14,14,Small-visBig,4,2
09suryavir37stroop,1,5,14,2,1451,0,15_couch2,15_scotchtape,15,15,Small-visBig,4,2
09suryavir37stroop,2,6,14,1,1144,1,13_piano,13_rubberduck,13,13,Big-visBig,1,1
09suryavir37stroop,2,7,14,2,3160,1,06_cable,06_parthenon,6,6,Small-visBig,4,2
09suryavir37stroop,1,8,14,1,1172,1,05_button,05_wagon,5,5,Big-visBig,1,1
09suryavir37stroop,2,9,14,2,1216,1,12_pencil sharpener 5,12_bookcase,12,12,Small-visBig,4,2
09suryavir37stroop,1,10,14,2,948,0,09_armchair,09_mushroom,9,9,Small-visBig,4,2
09suryavir37stroop,1,11,14,1,838,1,07_dice,07_grill,7,7,Big-visBig,1,1
09suryavir37stroop,2,12,14,1,886,1,18_hotairballoon,18_ringbox03,18,18,Big-visBig,1,1
09suryavir37stroop,2,13,14,2,1012,0,07_dice,07_grill,7,7,Small-visBig,4,2
09suryavir37stroop,2,14,14,1,917,0,04_tractor11,04_camera,4,4,Big-visBig,1,1
09suryavir37stroop,1,15,14,1,779,1,18_ringbox03,18_hotairballoon,18,18,Big-visBig,1,1
09suryavir37stroop,1,16,14,2,2938,0,07_grill,07_dice,7,7,Small-visBig,4,2
09suryavir37stroop,2,17,14,2,1361,0,16_clock,16_garbagecan,16,16,Small-visBig,4,2
09suryavir37stroop,1,18,14,1,633,0,03_baseball 2,03_sofachair,3,3,Big-visBig,1,1
09suryavir37stroop,2,19,14,1,1029,0,19_refrigerator,19_garlic,19,19,Big-visBig,1,1
09suryavir37stroop,1,20,14,2,988,0,14_washingMachine,14_perfume,14,14,Small-visBig,4,2
09suryavir37stroop,2,21,14,2,1348,0,13_rubberduck,13_piano,13,13,Small-visBig,4,2
09suryavir37stroop,2,22,14,1,5632,0,01_desk,01_apple,1,1,Big-visBig,1,1
09suryavir37stroop,1,23,14,1,2273,1,01_apple,01_desk,1,1,Big-visBig,1,1
09suryavir37stroop,1,24,14,2,1142,1,04_tractor11,04_camera,4,4,Small-visBig,4,2
09suryavir37stroop,2,25,14,1,1557,0,03_sofachair,03_baseball 2,3,3,Big-visBig,1,1
09suryavir37stroop,2,26,14,2,1119,0,02_seashell,02_carousel,2,2,Small-visBig,4,2
09suryavir37stroop,1,27,14,2,862,1,20_wheelchair,20_ornament,20,20,Small-visBig,4,2
09suryavir37stroop,1,28,14,1,961,1,15_scotchtape,15_couch2,15,15,Big-visBig,1,1
09suryavir37stroop,2,29,14,1,1341,0,07_grill,07_dice,7,7,Big-visBig,1,1
09suryavir37stroop,2,30,14,2,813,0,20_ornament,20_wheelchair,20,20,Small-visBig,4,2
09suryavir37stroop,1,31,14,1,887,1,06_cable,06_parthenon,6,6,Big-visBig,1,1
09suryavir37stroop,1,32,14,2,853,1,19_refrigerator,19_garlic,19,19,Small-visBig,4,2
09suryavir37stroop,1,33,14,2,856,1,03_sofachair,03_baseball 2,3,3,Small-visBig,4,2
09suryavir37stroop,2,34,14,1,645,0,08_uprightpiano,08_changepurse,8,8,Big-visBig,1,1
09suryavir37stroop,1,35,14,1,828,1,19_garlic,19_refrigerator,19,19,Big-visBig,1,1
09suryavir37stroop,2,36,14,2,663,0,09_mushroom,09_armchair,9,9,Small-visBig,4,2
09suryavir37stroop,1,37,14,2,825,1,11_fountain13,11_controller,11,11,Small-visBig,4,2
09suryavir37stroop,2,38,14,1,915,0,14_washingMachine,14_perfume,14,14,Big-visBig,1,1
09suryavir37stroop,2,39,14,2,906,0,17_pinecone,17_hotairballoon2,17,17,Small-visBig,4,2
09suryavir37stroop,1,40,14,1,943,1,14_perfume,14_washingMachine,14,14,Big-visBig,1,1
09suryavir37stroop,2,41,14,1,733,0,17_hotairballoon2,17_pinecone,17,17,Big-visBig,1,1
09suryavir37stroop,1,42,14,1,809,1,13_rubberduck,13_piano,13,13,Big-visBig,1,1
09suryavir37stroop,2,43,14,2,719,0,18_ringbox03,18_hotairballoon,18,18,Small-visBig,4,2
09suryavir37stroop,1,44,14,2,842,1,10_bison,10_bowtiepasta,10,10,Small-visBig,4,2
09suryavir37stroop,2,45,14,2,848,0,11_controller,11_fountain13,11,11,Small-visBig,4,2
09suryavir37stroop,1,46,14,1,790,1,11_controller,11_fountain13,11,11,Big-visBig,1,1
09suryavir37stroop,1,47,14,2,647,1,08_uprightpiano,08_changepurse,8,8,Small-visBig,4,2
09suryavir37stroop,2,48,14,1,767,0,15_couch2,15_scotchtape,15,15,Big-visBig,1,1
09suryavir37stroop,2,49,14,1,825,0,05_wagon,05_button,5,5,Big-visBig,1,1
09suryavir37stroop,1,50,14,2,926,0,13_piano,13_rubberduck,13,13,Small-visBig,4,2
09suryavir37stroop,1,51,14,1,1151,1,04_camera,04_tractor11,4,4,Big-visBig,1,1
09suryavir37stroop,2,52,14,2,780,0,10_bowtiepasta,10_bison,10,10,Small-visBig,4,2
09suryavir37stroop,2,53,14,1,790,0,06_parthenon,06_cable,6,6,Big-visBig,1,1
09suryavir37stroop,1,54,14,2,737,1,18_hotairballoon,18_ringbox03,18,18,Small-visBig,4,2
09suryavir37stroop,2,55,14,2,751,0,01_apple,01_desk,1,1,Small-visBig,4,2
09suryavir37stroop,1,56,14,1,726,1,10_bowtiepasta,10_bison,10,10,Big-visBig,1,1
09suryavir37stroop,2,57,14,1,673,0,09_armchair,09_mushroom,9,9,Big-visBig,1,1
09suryavir37stroop,1,58,14,2,749,1,02_carousel,02_seashell,2,2,Small-visBig,4,2
09suryavir37stroop,1,59,14,1,884,1,16_clock,16_garbagecan,16,16,Big-visBig,1,1
09suryavir37stroop,2,60,14,2,725,0,04_camera,04_tractor11,4,4,Small-visBig,4,2
09suryavir37stroop,2,61,14,1,857,0,12_bookcase,12_pencil sharpener 5,12,12,Big-visBig,1,1
09suryavir37stroop,1,62,14,1,749,1,02_seashell,02_carousel,2,2,Big-visBig,1,1
09suryavir37stroop,2,63,14,2,687,0,19_garlic,19_refrigerator,19,19,Small-visBig,4,2
09suryavir37stroop,1,64,14,2,784,1,16_garbagecan,16_clock,16,16,Small-visBig,4,2
09suryavir37stroop,2,65,14,1,735,0,16_garbagecan,16_clock,16,16,Big-visBig,1,1
09suryavir37stroop,1,66,14,1,524,1,20_ornament,20_wheelchair,20,20,Big-visBig,1,1
09suryavir37stroop,1,67,14,2,660,1,12_bookcase,12_pencil sharpener 5,12,12,Small-visBig,4,2
09suryavir37stroop,2,68,14,2,1185,0,03_baseball 2,03_sofachair,3,3,Small-visBig,4,2
09suryavir37stroop,1,69,14,1,973,1,09_mushroom,09_armchair,9,9,Big-visBig,1,1
09suryavir37stroop,2,70,14,2,667,0,15_scotchtape,15_couch2,15,15,Small-visBig,4,2
09suryavir37stroop,1,71,14,2,1065,1,06_parthenon,06_cable,6,6,Small-visBig,4,2
09suryavir37stroop,2,72,14,1,631,0,02_carousel,02_seashell,2,2,Big-visBig,1,1
09suryavir37stroop,2,73,14,2,556,0,08_changepurse,08_uprightpiano,8,8,Small-visBig,4,2
09suryavir37stroop,2,74,14,1,592,0,11_fountain13,11_controller,11,11,Big-visBig,1,1
09suryavir37stroop,1,75,14,1,542,1,12_pencil sharpener 5,12_bookcase,12,12,Big-visBig,1,1
09suryavir37stroop,1,76,14,2,578,1,17_hotairballoon2,17_pinecone,17,17,Small-visBig,4,2
09suryavir37stroop,2,77,14,2,1982,0,05_button,05_wagon,5,5,Small-visBig,4,2
09suryavir37stroop,1,78,14,2,814,1,01_desk,01_apple,1,1,Small-visBig,4,2
09suryavir37stroop,1,79,14,1,627,1,17_pinecone,17_hotairballoon2,17,17,Big-visBig,1,1
09suryavir37stroop,2,80,14,1,599,0,10_bison,10_bowtiepasta,10,10,Big-visBig,1,1
11cayden36,2,1,15,2,6443,0,10_bowtiepasta,10_bison,10,10,Small-visBig,4,2
11cayden36,2,2,15,1,4386,1,06_parthenon,06_cable,6,6,Big-visBig,1,1
11cayden36,1,3,15,1,3964,1,09_mushroom,09_armchair,9,9,Big-visBig,1,1
11cayden36,1,4,15,2,4343,1,13_piano,13_rubberduck,13,13,Small-visBig,4,2
11cayden36,1,5,15,1,2335,1,19_garlic,19_refrigerator,19,19,Big-visBig,1,1
11cayden36,1,6,15,2,2790,0,09_armchair,09_mushroom,9,9,Small-visBig,4,2
11cayden36,2,7,15,1,3087,1,03_sofachair,03_baseball 2,3,3,Big-visBig,1,1
11cayden36,2,8,15,2,2952,1,04_camera,04_tractor11,4,4,Small-visBig,4,2
11cayden36,1,9,15,2,2991,1,08_uprightpiano,08_changepurse,8,8,Small-visBig,4,2
11cayden36,2,10,15,2,5454,1,20_ornament,20_wheelchair,20,20,Small-visBig,4,2
11cayden36,2,11,15,1,899,0,12_bookcase,12_pencil sharpener 5,12,12,Big-visBig,1,1
11cayden36,1,12,15,1,1694,1,05_button,05_wagon,5,5,Big-visBig,1,1
11cayden36,1,13,15,1,1841,1,12_pencil sharpener 5,12_bookcase,12,12,Big-visBig,1,1
11cayden36,1,14,15,2,1070,1,18_hotairballoon,18_ringbox03,18,18,Small-visBig,4,2
11cayden36,2,15,15,2,3532,1,12_pencil sharpener 5,12_bookcase,12,12,Small-visBig,4,2
11cayden36,2,16,15,1,2046,0,09_armchair,09_mushroom,9,9,Big-visBig,1,1
11cayden36,2,17,15,2,4016,0,07_dice,07_grill,7,7,Small-visBig,4,2
11cayden36,1,18,15,2,2600,1,10_bison,10_bowtiepasta,10,10,Small-visBig,4,2
11cayden36,2,19,15,1,1785,0,04_tractor11,04_camera,4,4,Big-visBig,1,1
11cayden36,1,20,15,1,2264,1,13_rubberduck,13_piano,13,13,Big-visBig,1,1
11cayden36,2,21,15,2,2163,0,11_controller,11_fountain13,11,11,Small-visBig,4,2
11cayden36,1,22,15,2,3216,1,11_fountain13,11_controller,11,11,Small-visBig,4,2
11cayden36,1,23,15,1,5577,1,14_perfume,14_washingMachine,14,14,Big-visBig,1,1
11cayden36,2,24,15,1,1827,0,16_garbagecan,16_clock,16,16,Big-visBig,1,1
11juan58stroop,1,1,16,1,1804,1,06_cable,06_parthenon,6,6,Big-visBig,1,1
11juan58stroop,2,2,16,2,1816,0,13_rubberduck,13_piano,13,13,Small-visBig,4,2
11juan58stroop,1,3,16,2,1476,1,06_parthenon,06_cable,6,6,Small-visBig,4,2
11juan58stroop,2,4,16,1,948,1,11_fountain13,11_controller,11,11,Big-visBig,1,1
11juan58stroop,1,5,16,1,1321,1,17_pinecone,17_hotairballoon2,17,17,Big-visBig,1,1
11juan58stroop,2,6,16,1,1116,1,12_bookcase,12_pencil sharpener 5,12,12,Big-visBig,1,1
11juan58stroop,1,7,16,2,1568,1,15_couch2,15_scotchtape,15,15,Small-visBig,4,2
11juan58stroop,2,8,16,2,1108,1,20_ornament,20_wheelchair,20,20,Small-visBig,4,2
11juan58stroop,1,9,16,1,976,1,05_button,05_wagon,5,5,Big-visBig,1,1
11juan58stroop,2,10,16,2,876,1,05_button,05_wagon,5,5,Small-visBig,4,2
11juan58stroop,2,11,16,1,893,1,09_armchair,09_mushroom,9,9,Big-visBig,1,1
11juan58stroop,1,12,16,2,918,1,04_tractor11,04_camera,4,4,Small-visBig,4,2
11juan58stroop,1,13,16,1,915,1,11_controller,11_fountain13,11,11,Big-visBig,1,1
11juan58stroop,1,14,16,2,926,1,05_wagon,05_button,5,5,Small-visBig,4,2
11juan58stroop,2,15,16,2,953,1,18_ringbox03,18_hotairballoon,18,18,Small-visBig,4,2
11juan58stroop,2,16,16,1,835,1,17_hotairballoon2,17_pinecone,17,17,Big-visBig,1,1
11juan58stroop,2,17,16,1,2241,1,05_wagon,05_button,5,5,Big-visBig,1,1
11juan58stroop,2,18,16,2,923,1,08_changepurse,08_uprightpiano,8,8,Small-visBig,4,2
11juan58stroop,1,19,16,1,736,0,08_changepurse,08_uprightpiano,8,8,Big-visBig,1,1
11juan58stroop,1,20,16,2,1482,1,11_fountain13,11_controller,11,11,Small-visBig,4,2
11juan58stroop,2,21,16,2,1306,1,11_controller,11_fountain13,11,11,Small-visBig,4,2
11juan58stroop,1,22,16,1,1236,1,20_ornament,20_wheelchair,20,20,Big-visBig,1,1
11juan58stroop,1,23,16,2,1092,1,03_sofachair,03_baseball 2,3,3,Small-visBig,4,2
11juan58stroop,2,24,16,1,1151,1,16_garbagecan,16_clock,16,16,Big-visBig,1,1
11juan58stroop,1,25,16,1,1093,1,16_clock,16_garbagecan,16,16,Big-visBig,1,1
11juan58stroop,2,26,16,1,1250,1,13_piano,13_rubberduck,13,13,Big-visBig,1,1
11juan58stroop,2,27,16,2,1168,1,19_garlic,19_refrigerator,19,19,Small-visBig,4,2
11juan58stroop,1,28,16,2,1565,1,10_bison,10_bowtiepasta,10,10,Small-visBig,4,2
11juan58stroop,1,29,16,1,975,1,04_camera,04_tractor11,4,4,Big-visBig,1,1
11juan58stroop,2,30,16,2,1636,1,16_clock,16_garbagecan,16,16,Small-visBig,4,2
11juan58stroop,1,31,16,2,1631,1,17_hotairballoon2,17_pinecone,17,17,Small-visBig,4,2
11juan58stroop,2,32,16,1,829,1,08_uprightpiano,08_changepurse,8,8,Big-visBig,1,1
11juan58stroop,1,33,16,2,1111,1,07_grill,07_dice,7,7,Small-visBig,4,2
11juan58stroop,1,34,16,1,986,1,19_garlic,19_refrigerator,19,19,Big-visBig,1,1
11juan58stroop,2,35,16,2,1102,1,15_scotchtape,15_couch2,15,15,Small-visBig,4,2
11juan58stroop,2,36,16,1,1874,1,07_grill,07_dice,7,7,Big-visBig,1,1
11juan58stroop,1,37,16,1,1500,1,13_rubberduck,13_piano,13,13,Big-visBig,1,1
11juan58stroop,1,38,16,2,1187,1,19_refrigerator,19_garlic,19,19,Small-visBig,4,2
11juan58stroop,2,39,16,2,1157,1,09_mushroom,09_armchair,9,9,Small-visBig,4,2
11juan58stroop,2,40,16,1,1053,1,20_wheelchair,20_ornament,20,20,Big-visBig,1,1
11juan58stroop,2,41,16,2,1209,1,07_dice,07_grill,7,7,Small-visBig,4,2
11juan58stroop,1,42,16,2,1569,1,20_wheelchair,20_ornament,20,20,Small-visBig,4,2
11juan58stroop,2,43,16,1,1209,1,15_couch2,15_scotchtape,15,15,Big-visBig,1,1
11juan58stroop,1,44,16,1,1135,1,15_scotchtape,15_couch2,15,15,Big-visBig,1,1
11juan58stroop,2,45,16,1,1213,1,01_desk,01_apple,1,1,Big-visBig,1,1
11juan58stroop,1,46,16,2,1101,1,12_bookcase,12_pencil sharpener 5,12,12,Small-visBig,4,2
11juan58stroop,1,47,16,1,1200,1,14_perfume,14_washingMachine,14,14,Big-visBig,1,1
11juan58stroop,2,48,16,2,1221,1,01_apple,01_desk,1,1,Small-visBig,4,2
11juan58stroop,1,49,16,1,1066,1,12_pencil sharpener 5,12_bookcase,12,12,Big-visBig,1,1
11juan58stroop,2,50,16,1,1667,1,04_tractor11,04_camera,4,4,Big-visBig,1,1
11juan58stroop,2,51,16,2,988,1,04_camera,04_tractor11,4,4,Small-visBig,4,2
11juan58stroop,1,52,16,2,848,1,09_armchair,09_mushroom,9,9,Small-visBig,4,2
11juan58stroop,1,53,16,2,1550,1,01_desk,01_apple,1,1,Small-visBig,4,2
11juan58stroop,1,54,16,1,3250,1,10_bowtiepasta,10_bison,10,10,Big-visBig,1,1
11juan58stroop,2,55,16,1,1602,1,02_carousel,02_seashell,2,2,Big-visBig,1,1
11juan58stroop,2,56,16,2,1418,1,03_baseball 2,03_sofachair,3,3,Small-visBig,4,2
11juan58stroop,1,57,16,1,1378,1,07_dice,07_grill,7,7,Big-visBig,1,1
11juan58stroop,2,58,16,2,864,1,10_bowtiepasta,10_bison,10,10,Small-visBig,4,2
11juan58stroop,2,59,16,1,877,1,18_hotairballoon,18_ringbox03,18,18,Big-visBig,1,1
11juan58stroop,1,60,16,2,1355,1,02_carousel,02_seashell,2,2,Small-visBig,4,2
11juan58stroop,2,61,16,1,1427,1,06_parthenon,06_cable,6,6,Big-visBig,1,1
11juan58stroop,1,62,16,1,1420,1,01_apple,01_desk,1,1,Big-visBig,1,1
11juan58stroop,2,63,16,2,1183,0,14_perfume,14_washingMachine,14,14,Small-visBig,4,2
11juan58stroop,1,64,16,2,1362,1,08_uprightpiano,08_changepurse,8,8,Small-visBig,4,2
11juan58stroop,1,65,16,1,1907,1,09_mushroom,09_armchair,9,9,Big-visBig,1,1
11juan58stroop,1,66,16,2,931,0,18_hotairballoon,18_ringbox03,18,18,Small-visBig,4,2
11juan58stroop,2,67,16,2,1286,1,17_pinecone,17_hotairballoon2,17,17,Small-visBig,4,2
11juan58stroop,2,68,16,1,1039,1,03_sofachair,03_baseball 2,3,3,Big-visBig,1,1
11juan58stroop,1,69,16,1,1225,1,02_seashell,02_carousel,2,2,Big-visBig,1,1
11juan58stroop,2,70,16,2,1004,1,06_cable,06_parthenon,6,6,Small-visBig,4,2
11juan58stroop,2,71,16,1,850,1,14_washingMachine,14_perfume,14,14,Big-visBig,1,1
11juan58stroop,1,72,16,2,1435,1,16_garbagecan,16_clock,16,16,Small-visBig,4,2
11juan58stroop,1,73,16,2,1234,1,14_washingMachine,14_perfume,14,14,Small-visBig,4,2
11juan58stroop,2,74,16,2,1114,1,12_pencil sharpener 5,12_bookcase,12,12,Small-visBig,4,2
11juan58stroop,2,75,16,1,1689,1,10_bison,10_bowtiepasta,10,10,Big-visBig,1,1
11juan58stroop,1,76,16,1,915,1,18_ringbox03,18_hotairballoon,18,18,Big-visBig,1,1
12henry47stroop,1,1,17,1,2477,1,10_bowtiepasta,10_bison,10,10,Big-visBig,1,1
12henry47stroop,2,2,17,2,2274,1,11_controller,11_fountain13,11,11,Small-visBig,4,2
12henry47stroop,1,3,17,2,1916,0,13_piano,13_rubberduck,13,13,Small-visBig,4,2
12henry47stroop,2,4,17,1,1434,1,16_garbagecan,16_clock,16,16,Big-visBig,1,1
12henry47stroop,2,5,17,1,1888,1,03_sofachair,03_baseball 2,3,3,Big-visBig,1,1
12henry47stroop,2,6,17,2,1416,1,16_clock,16_garbagecan,16,16,Small-visBig,4,2
12henry47stroop,1,7,17,1,2969,1,04_camera,04_tractor11,4,4,Big-visBig,1,1
12henry47stroop,1,8,17,2,1773,1,05_wagon,05_button,5,5,Small-visBig,4,2
12henry47stroop,2,9,17,1,2467,1,02_carousel,02_seashell,2,2,Big-visBig,1,1
12henry47stroop,1,10,17,1,1242,1,03_baseball 2,03_sofachair,3,3,Big-visBig,1,1
12henry47stroop,1,11,17,2,1263,1,08_uprightpiano,08_changepurse,8,8,Small-visBig,4,2
12henry47stroop,2,12,17,2,1537,1,04_camera,04_tractor11,4,4,Small-visBig,4,2
12henry47stroop,2,13,17,1,1253,1,01_desk,01_apple,1,1,Big-visBig,1,1
12henry47stroop,1,14,17,1,1232,1,12_pencil sharpener 5,12_bookcase,12,12,Big-visBig,1,1
12henry47stroop,2,15,17,2,1776,1,14_perfume,14_washingMachine,14,14,Small-visBig,4,2
12henry47stroop,1,16,17,2,4271,1,19_refrigerator,19_garlic,19,19,Small-visBig,4,2
12henry47stroop,2,17,17,2,1486,1,17_pinecone,17_hotairballoon2,17,17,Small-visBig,4,2
12henry47stroop,2,18,17,1,29306,1,07_grill,07_dice,7,7,Big-visBig,1,1
12henry47stroop,1,19,17,1,1150,1,01_apple,01_desk,1,1,Big-visBig,1,1
12henry47stroop,1,20,17,2,967,1,17_hotairballoon2,17_pinecone,17,17,Small-visBig,4,2
12henry47stroop,1,21,17,2,1119,1,18_hotairballoon,18_ringbox03,18,18,Small-visBig,4,2
12henry47stroop,1,22,17,1,2161,1,17_pinecone,17_hotairballoon2,17,17,Big-visBig,1,1
12henry47stroop,2,23,17,2,1987,1,18_ringbox03,18_hotairballoon,18,18,Small-visBig,4,2
12henry47stroop,2,24,17,1,5972,1,13_piano,13_rubberduck,13,13,Big-visBig,1,1
12henry47stroop,1,25,17,1,1043,1,05_button,05_wagon,5,5,Big-visBig,1,1
12henry47stroop,1,26,17,2,1837,1,12_bookcase,12_pencil sharpener 5,12,12,Small-visBig,4,2
12henry47stroop,2,27,17,2,1753,1,20_ornament,20_wheelchair,20,20,Small-visBig,4,2
12henry47stroop,2,28,17,1,1612,1,08_uprightpiano,08_changepurse,8,8,Big-visBig,1,1
12henry47stroop,2,29,17,1,1072,1,10_bison,10_bowtiepasta,10,10,Big-visBig,1,1
12sebastian54,1,1,18,1,5393,1,17_pinecone,17_hotairballoon2,17,17,Big-visBig,1,1
12sebastian54,2,2,18,1,2043,1,14_washingMachine,14_perfume,14,14,Big-visBig,1,1
12sebastian54,2,3,18,2,1313,1,09_mushroom,09_armchair,9,9,Small-visBig,4,2
12sebastian54,1,4,18,2,2189,1,04_tractor11,04_camera,4,4,Small-visBig,4,2
12sebastian54,1,5,18,2,1574,1,03_sofachair,03_baseball 2,3,3,Small-visBig,4,2
12sebastian54,2,6,18,1,1399,1,15_couch2,15_scotchtape,15,15,Big-visBig,1,1
12sebastian54,2,7,18,2,1025,1,04_camera,04_tractor11,4,4,Small-visBig,4,2
12sebastian54,1,8,18,1,1357,1,03_baseball 2,03_sofachair,3,3,Big-visBig,1,1
12sebastian54,1,9,18,1,2134,1,06_cable,06_parthenon,6,6,Big-visBig,1,1
12sebastian54,2,10,18,1,1292,1,12_bookcase,12_pencil sharpener 5,12,12,Big-visBig,1,1
12sebastian54,2,11,18,2,1329,0,12_pencil sharpener 5,12_bookcase,12,12,Small-visBig,4,2
12sebastian54,1,12,18,2,1799,1,19_refrigerator,19_garlic,19,19,Small-visBig,4,2
12sebastian54,2,13,18,2,3592,1,03_baseball 2,03_sofachair,3,3,Small-visBig,4,2
12sebastian54,1,14,18,1,3210,1,19_garlic,19_refrigerator,19,19,Big-visBig,1,1
12sebastian54,2,15,18,1,1130,1,02_carousel,02_seashell,2,2,Big-visBig,1,1
12sebastian54,1,16,18,2,3968,1,10_bison,10_bowtiepasta,10,10,Small-visBig,4,2
12sebastian54,2,17,18,1,2336,1,16_garbagecan,16_clock,16,16,Big-visBig,1,1
12sebastian54,2,18,18,2,1367,1,16_clock,16_garbagecan,16,16,Small-visBig,4,2
12sebastian54,1,19,18,2,1526,1,07_grill,07_dice,7,7,Small-visBig,4,2
12sebastian54,1,20,18,1,1366,1,15_scotchtape,15_couch2,15,15,Big-visBig,1,1
12sebastian54,2,21,18,2,2918,1,05_button,05_wagon,5,5,Small-visBig,4,2
12sebastian54,2,22,18,1,1452,1,18_hotairballoon,18_ringbox03,18,18,Big-visBig,1,1
12sebastian54,1,23,18,2,1534,1,15_couch2,15_scotchtape,15,15,Small-visBig,4,2
12sebastian54,1,24,18,1,1168,1,16_clock,16_garbagecan,16,16,Big-visBig,1,1
12sebastian54,1,25,18,2,1990,1,13_piano,13_rubberduck,13,13,Small-visBig,4,2
12sebastian54,2,26,18,2,1235,1,15_scotchtape,15_couch2,15,15,Small-visBig,4,2
12sebastian54,1,27,18,1,1343,1,04_camera,04_tractor11,4,4,Big-visBig,1,1
12sebastian54,2,28,18,1,2016,1,20_wheelchair,20_ornament,20,20,Big-visBig,1,1
12sebastian54,2,29,18,2,1277,1,01_apple,01_desk,1,1,Small-visBig,4,2
12sebastian54,1,30,18,1,1520,1,01_apple,01_desk,1,1,Big-visBig,1,1
12sebastian54,1,31,18,2,2221,1,16_garbagecan,16_clock,16,16,Small-visBig,4,2
13alex48,2,1,19,2,4237,1,07_dice,07_grill,7,7,Small-visBig,4,2
13alex48,1,2,19,2,1632,1,12_bookcase,12_pencil sharpener 5,12,12,Small-visBig,4,2
13alex48,2,3,19,1,1199,1,13_piano,13_rubberduck,13,13,Big-visBig,1,1
13alex48,1,4,19,1,1344,1,09_mushroom,09_armchair,9,9,Big-visBig,1,1
13alex48,1,5,19,2,1269,1,20_wheelchair,20_ornament,20,20,Small-visBig,4,2
13alex48,2,6,19,1,1757,1,01_desk,01_apple,1,1,Big-visBig,1,1
13alex48,1,7,19,1,1399,1,12_pencil sharpener 5,12_bookcase,12,12,Big-visBig,1,1
13alex48,2,8,19,2,1604,1,03_baseball 2,03_sofachair,3,3,Small-visBig,4,2
13alex48,1,9,19,2,1152,1,17_hotairballoon2,17_pinecone,17,17,Small-visBig,4,2
13alex48,2,10,19,1,1314,1,12_bookcase,12_pencil sharpener 5,12,12,Big-visBig,1,1
13alex48,1,11,19,1,1050,1,13_rubberduck,13_piano,13,13,Big-visBig,1,1
13alex48,2,12,19,2,1612,1,08_changepurse,08_uprightpiano,8,8,Small-visBig,4,2
13alex48,2,13,19,2,1670,1,17_pinecone,17_hotairballoon2,17,17,Small-visBig,4,2
13alex48,1,14,19,2,1667,1,14_washingMachine,14_perfume,14,14,Small-visBig,4,2
13alex48,2,15,19,1,1283,1,18_hotairballoon,18_ringbox03,18,18,Big-visBig,1,1
13alex48,1,16,19,1,1406,1,04_camera,04_tractor11,4,4,Big-visBig,1,1
13alex48,2,17,19,1,1036,1,19_refrigerator,19_garlic,19,19,Big-visBig,1,1
13alex48,1,18,19,1,949,1,10_bowtiepasta,10_bison,10,10,Big-visBig,1,1
13alex48,1,19,19,2,1212,1,08_uprightpiano,08_changepurse,8,8,Small-visBig,4,2
13alex48,2,20,19,2,1150,1,14_perfume,14_washingMachine,14,14,Small-visBig,4,2
13alex48,1,21,19,1,1003,1,20_ornament,20_wheelchair,20,20,Big-visBig,1,1
13alex48,2,22,19,1,1246,1,20_wheelchair,20_ornament,20,20,Big-visBig,1,1
13alex48,2,23,19,2,1020,1,01_apple,01_desk,1,1,Small-visBig,4,2
13alex48,1,24,19,2,948,1,11_fountain13,11_controller,11,11,Small-visBig,4,2
13alex48,2,25,19,2,1001,1,15_scotchtape,15_couch2,15,15,Small-visBig,4,2
13alex48,1,26,19,2,861,1,09_armchair,09_mushroom,9,9,Small-visBig,4,2
13alex48,1,27,19,1,844,1,07_dice,07_grill,7,7,Big-visBig,1,1
13alex48,2,28,19,1,997,1,09_armchair,09_mushroom,9,9,Big-visBig,1,1
13alex48,2,29,19,1,974,1,04_tractor11,04_camera,4,4,Big-visBig,1,1
13alex48,1,30,19,2,1083,1,18_hotairballoon,18_ringbox03,18,18,Small-visBig,4,2
13alex48,1,31,19,1,884,1,14_perfume,14_washingMachine,14,14,Big-visBig,1,1
13alex48,2,32,19,2,965,1,11_controller,11_fountain13,11,11,Small-visBig,4,2
13alex48,1,33,19,2,881,1,01_desk,01_apple,1,1,Small-visBig,4,2
13alex48,1,34,19,1,1058,1,05_button,05_wagon,5,5,Big-visBig,1,1
13alex48,2,35,19,1,1799,0,05_wagon,05_button,5,5,Big-visBig,1,1
13alex48,2,36,19,2,1798,1,02_seashell,02_carousel,2,2,Small-visBig,4,2
13alex48,2,37,19,2,1532,1,13_rubberduck,13_piano,13,13,Small-visBig,4,2
13alex48,2,38,19,1,1424,1,17_hotairballoon2,17_pinecone,17,17,Big-visBig,1,1
13alex48,1,39,19,2,1506,1,10_bison,10_bowtiepasta,10,10,Small-visBig,4,2
13alex48,1,40,19,1,1416,1,03_baseball 2,03_sofachair,3,3,Big-visBig,1,1
13alex48,1,41,19,2,1325,1,06_parthenon,06_cable,6,6,Small-visBig,4,2
13alex48,2,42,19,1,1230,1,10_bison,10_bowtiepasta,10,10,Big-visBig,1,1
13alex48,1,43,19,1,1334,1,15_scotchtape,15_couch2,15,15,Big-visBig,1,1
13alex48,2,44,19,2,1748,1,18_ringbox03,18_hotairballoon,18,18,Small-visBig,4,2
13alex48,1,45,19,2,1183,1,13_piano,13_rubberduck,13,13,Small-visBig,4,2
13alex48,1,46,19,1,1253,1,18_ringbox03,18_hotairballoon,18,18,Big-visBig,1,1
13alex48,2,47,19,2,1366,1,12_pencil sharpener 5,12_bookcase,12,12,Small-visBig,4,2
13alex48,2,48,19,1,1250,1,06_parthenon,06_cable,6,6,Big-visBig,1,1
13alex48,1,49,19,2,1334,1,15_couch2,15_scotchtape,15,15,Small-visBig,4,2
13alex48,2,50,19,2,2065,1,10_bowtiepasta,10_bison,10,10,Small-visBig,4,2
13alex48,1,51,19,1,1044,1,08_changepurse,08_uprightpiano,8,8,Big-visBig,1,1
13alex48,2,52,19,1,904,1,08_uprightpiano,08_changepurse,8,8,Big-visBig,1,1
13alex48,1,53,19,2,1228,1,07_grill,07_dice,7,7,Small-visBig,4,2
13alex48,2,54,19,1,1083,1,15_couch2,15_scotchtape,15,15,Big-visBig,1,1
13alex48,2,55,19,2,1164,1,19_garlic,19_refrigerator,19,19,Small-visBig,4,2
13alex48,1,56,19,1,1169,1,17_pinecone,17_hotairballoon2,17,17,Big-visBig,1,1
13alex48,1,57,19,2,985,1,02_carousel,02_seashell,2,2,Small-visBig,4,2
13alex48,1,58,19,1,869,1,02_seashell,02_carousel,2,2,Big-visBig,1,1
13alex48,2,59,19,1,1745,1,03_sofachair,03_baseball 2,3,3,Big-visBig,1,1
13alex48,2,60,19,2,1395,1,09_mushroom,09_armchair,9,9,Small-visBig,4,2
13alex48,1,61,19,2,1076,1,05_wagon,05_button,5,5,Small-visBig,4,2
14christian36,1,1,20,1,7635,1,12_pencil sharpener 5,12_bookcase,12,12,Big-visBig,1,1
14christian36,1,2,20,2,4903,0,06_parthenon,06_cable,6,6,Small-visBig,4,2
14christian36,2,3,20,2,4784,1,06_cable,06_parthenon,6,6,Small-visBig,4,2
14christian36,2,4,20,1,4958,0,17_hotairballoon2,17_pinecone,17,17,Big-visBig,1,1
14christian36,1,5,20,1,1291,0,04_camera,04_tractor11,4,4,Big-visBig,1,1
14christian36,1,6,20,2,3858,1,19_refrigerator,19_garlic,19,19,Small-visBig,4,2
14christian36,2,7,20,2,1613,1,08_changepurse,08_uprightpiano,8,8,Small-visBig,4,2
14christian36,2,8,20,1,1854,0,07_grill,07_dice,7,7,Big-visBig,1,1
14christian36,1,9,20,2,2772,0,10_bison,10_bowtiepasta,10,10,Small-visBig,4,2
14christian36,1,10,20,1,4939,1,11_controller,11_fountain13,11,11,Big-visBig,1,1
14christian36,2,11,20,2,4292,1,05_button,05_wagon,5,5,Small-visBig,4,2
14christian36,2,12,20,1,2327,0,19_refrigerator,19_garlic,19,19,Big-visBig,1,1
14christian36,2,13,20,2,1609,0,13_rubberduck,13_piano,13,13,Small-visBig,4,2
14christian36,2,14,20,1,4342,1,08_uprightpiano,08_changepurse,8,8,Big-visBig,1,1
14christian36,1,15,20,1,4261,0,14_perfume,14_washingMachine,14,14,Big-visBig,1,1
14christian36,1,16,20,2,2399,1,17_hotairballoon2,17_pinecone,17,17,Small-visBig,4,2
14christian36,2,17,20,1,4588,1,09_armchair,09_mushroom,9,9,Big-visBig,1,1
14christian36,2,18,20,2,7296,1,07_dice,07_grill,7,7,Small-visBig,4,2
14christian36,1,19,20,1,5053,1,07_dice,07_grill,7,7,Big-visBig,1,1
14christian36,1,20,20,2,2138,0,03_sofachair,03_baseball 2,3,3,Small-visBig,4,2
14christian36,2,21,20,2,1762,0,19_garlic,19_refrigerator,19,19,Small-visBig,4,2
14christian36,2,22,20,1,1496,0,04_tractor11,04_camera,4,4,Big-visBig,1,1
14christian36,1,23,20,2,1302,1,05_wagon,05_button,5,5,Small-visBig,4,2
14christian36,1,24,20,1,1465,0,17_pinecone,17_hotairballoon2,17,17,Big-visBig,1,1
14christian36,2,25,20,2,2458,0,12_pencil sharpener 5,12_bookcase,12,12,Small-visBig,4,2
14christian36,1,26,20,1,2615,1,05_button,05_wagon,5,5,Big-visBig,1,1
14christian36,2,27,20,1,3434,1,03_sofachair,03_baseball 2,3,3,Big-visBig,1,1
14christian36,1,28,20,2,4407,1,16_garbagecan,16_clock,16,16,Small-visBig,4,2
14christian36,2,29,20,2,1981,0,11_controller,11_fountain13,11,11,Small-visBig,4,2
14christian36,1,30,20,1,5241,1,13_rubberduck,13_piano,13,13,Big-visBig,1,1
14christian36,1,31,20,2,9738,1,20_wheelchair,20_ornament,20,20,Small-visBig,4,2
14christian36,2,32,20,1,1918,1,20_wheelchair,20_ornament,20,20,Big-visBig,1,1
14christian36,1,33,20,1,4344,1,15_scotchtape,15_couch2,15,15,Big-visBig,1,1
14christian36,2,34,20,1,1566,1,15_couch2,15_scotchtape,15,15,Big-visBig,1,1
14christian36,2,35,20,2,2509,1,14_perfume,14_washingMachine,14,14,Small-visBig,4,2
14christian36,1,36,20,2,5055,1,12_bookcase,12_pencil sharpener 5,12,12,Small-visBig,4,2
14christian36,1,37,20,1,2101,1,08_changepurse,08_uprightpiano,8,8,Big-visBig,1,1
14christian36,2,38,20,2,2715,1,17_pinecone,17_hotairballoon2,17,17,Small-visBig,4,2
14christian36,2,39,20,1,3392,0,02_carousel,02_seashell,2,2,Big-visBig,1,1
14christian36,1,40,20,2,1552,1,02_carousel,02_seashell,2,2,Small-visBig,4,2
14christian36,2,41,20,1,1559,0,05_wagon,05_button,5,5,Big-visBig,1,1
14christian36,2,42,20,2,1479,0,01_apple,01_desk,1,1,Small-visBig,4,2
14christian36,1,43,20,1,1820,1,03_baseball 2,03_sofachair,3,3,Big-visBig,1,1
14christian36,1,44,20,2,1525,1,04_tractor11,04_camera,4,4,Small-visBig,4,2
14christian36,2,45,20,1,1033,1,13_piano,13_rubberduck,13,13,Big-visBig,1,1
14christian36,1,46,20,2,1905,0,13_piano,13_rubberduck,13,13,Small-visBig,4,2
14christian36,1,47,20,1,2050,1,19_garlic,19_refrigerator,19,19,Big-visBig,1,1
14christian36,2,48,20,2,4297,1,18_ringbox03,18_hotairballoon,18,18,Small-visBig,4,2
15sam48,2,1,21,2,5587,1,06_cable,06_parthenon,6,6,Small-visBig,4,2
15sam48,1,2,21,2,2325,1,16_garbagecan,16_clock,16,16,Small-visBig,4,2
15sam48,1,3,21,1,1784,1,17_pinecone,17_hotairballoon2,17,17,Big-visBig,1,1
15sam48,2,4,21,1,1596,1,08_uprightpiano,08_changepurse,8,8,Big-visBig,1,1
15sam48,1,5,21,1,1802,1,15_scotchtape,15_couch2,15,15,Big-visBig,1,1
15sam48,1,6,21,2,1819,1,13_piano,13_rubberduck,13,13,Small-visBig,4,2
15sam48,2,7,21,2,1711,1,20_ornament,20_wheelchair,20,20,Small-visBig,4,2
15sam48,2,8,21,1,1384,1,16_garbagecan,16_clock,16,16,Big-visBig,1,1
15sam48,1,9,21,1,1555,1,02_seashell,02_carousel,2,2,Big-visBig,1,1
15sam48,2,10,21,1,1757,1,20_wheelchair,20_ornament,20,20,Big-visBig,1,1
